Times (s) 	 Angular Position (degrees) 
0.000000 	 -93.965396 
0.005000 	 -93.989479 
0.010000 	 -93.917230 
0.015000 	 -93.941313 
0.020000 	 -93.941313 
0.025000 	 -93.917230 
0.030000 	 -93.820897 
0.035000 	 -93.917230 
0.040000 	 -93.869064 
0.045000 	 -93.893147 
0.050000 	 -93.917230 
0.055000 	 -93.941313 
0.060000 	 -93.965396 
0.065000 	 -93.965396 
0.070000 	 -93.965396 
0.075000 	 -94.013563 
0.080000 	 -94.061729 
0.085000 	 -93.989479 
0.090000 	 -94.133978 
0.095000 	 -94.133978 
0.100000 	 -94.037646 
0.105000 	 -94.109895 
0.110000 	 -94.061729 
0.115000 	 -94.061729 
0.120000 	 -94.037646 
0.125000 	 -93.965396 
0.130000 	 -93.965396 
0.135000 	 -93.965396 
0.140000 	 -93.965396 
0.145000 	 -93.965396 
0.150000 	 -93.965396 
0.155000 	 -93.965396 
0.160000 	 -93.965396 
0.165000 	 -93.989479 
0.170000 	 -93.917230 
0.175000 	 -93.989479 
0.180000 	 -93.989479 
0.185000 	 -93.941313 
0.190000 	 -93.893147 
0.195000 	 -93.989479 
0.200000 	 -93.965396 
0.205000 	 -94.037646 
0.210000 	 -93.965396 
0.215000 	 -94.013563 
0.220000 	 -93.965396 
0.225000 	 -94.061729 
0.230000 	 -94.085812 
0.235000 	 -93.941313 
0.240000 	 -93.965396 
0.245000 	 -93.989479 
0.250000 	 -93.989479 
0.255000 	 -93.893147 
0.260000 	 -93.965396 
0.265000 	 -93.989479 
0.270000 	 -93.965396 
0.275000 	 -93.917230 
0.280000 	 -93.869064 
0.285000 	 -93.820897 
0.290000 	 -93.844981 
0.295000 	 -93.820897 
0.300000 	 -93.820897 
0.305000 	 -93.820897 
0.310000 	 -93.869064 
0.315000 	 -93.820897 
0.320000 	 -93.820897 
0.325000 	 -93.844981 
0.330000 	 -93.820897 
0.335000 	 -93.844981 
0.340000 	 -93.844981 
0.345000 	 -93.796814 
0.350000 	 -93.917230 
0.355000 	 -93.893147 
0.360000 	 -93.941313 
0.365000 	 -93.941313 
0.370000 	 -93.965396 
0.375000 	 -94.037646 
0.380000 	 -93.893147 
0.385000 	 -93.965396 
0.390000 	 -93.965396 
0.395000 	 -93.917230 
0.400000 	 -93.893147 
0.405000 	 -93.869064 
0.410000 	 -93.820897 
0.415000 	 -93.820897 
0.420000 	 -93.869064 
0.425000 	 -93.869064 
0.430000 	 -93.869064 
0.435000 	 -93.820897 
0.440000 	 -93.748648 
0.445000 	 -93.796814 
0.450000 	 -93.820897 
0.455000 	 -93.893147 
0.460000 	 -93.869064 
0.465000 	 -93.844981 
0.470000 	 -93.820897 
0.475000 	 -93.820897 
0.480000 	 -93.844981 
0.485000 	 -93.796814 
0.490000 	 -93.820897 
0.495000 	 -93.796814 
0.500000 	 -93.796814 
0.505000 	 -93.748648 
0.510000 	 -93.772731 
0.515000 	 -93.772731 
0.520000 	 -93.748648 
0.525000 	 -93.796814 
0.530000 	 -93.796814 
0.535000 	 -93.772731 
0.540000 	 -93.796814 
0.545000 	 -93.820897 
0.550000 	 -93.796814 
0.555000 	 -93.796814 
0.560000 	 -93.869064 
0.565000 	 -93.748648 
0.570000 	 -93.820897 
0.575000 	 -93.796814 
0.580000 	 -93.820897 
0.585000 	 -93.820897 
0.590000 	 -93.820897 
0.595000 	 -93.772731 
0.600000 	 -93.796814 
0.605000 	 -93.844981 
0.610000 	 -93.844981 
0.615000 	 -93.844981 
0.620000 	 -93.869064 
0.625000 	 -93.869064 
0.630000 	 -93.941313 
0.635000 	 -93.893147 
0.640000 	 -93.893147 
0.645000 	 -93.917230 
0.650000 	 -93.893147 
0.655000 	 -93.869064 
0.660000 	 -93.893147 
0.665000 	 -93.893147 
0.670000 	 -93.917230 
0.675000 	 -93.917230 
0.680000 	 -93.941313 
0.685000 	 -93.965396 
0.690000 	 -93.941313 
0.695000 	 -93.941313 
0.700000 	 -93.965396 
0.705000 	 -93.917230 
0.710000 	 -93.941313 
0.715000 	 -93.941313 
0.720000 	 -93.893147 
0.725000 	 -93.893147 
0.730000 	 -94.013563 
0.735000 	 -94.013563 
0.740000 	 -94.013563 
0.745000 	 -94.013563 
0.750000 	 -93.989479 
0.755000 	 -93.965396 
0.760000 	 -93.941313 
0.765000 	 -93.941313 
0.770000 	 -93.941313 
0.775000 	 -94.037646 
0.780000 	 -94.061729 
0.785000 	 -94.013563 
0.790000 	 -94.037646 
0.795000 	 -94.061729 
0.800000 	 -94.061729 
0.805000 	 -94.085812 
0.810000 	 -94.109895 
0.815000 	 -94.085812 
0.820000 	 -94.037646 
0.825000 	 -94.133978 
0.830000 	 -94.037646 
0.835000 	 -94.085812 
0.840000 	 -94.013563 
0.845000 	 -94.085812 
0.850000 	 -94.037646 
0.855000 	 -94.061729 
0.860000 	 -93.989479 
0.865000 	 -94.013563 
0.870000 	 -94.037646 
0.875000 	 -94.037646 
0.880000 	 -94.013563 
0.885000 	 -94.085812 
0.890000 	 -94.061729 
0.895000 	 -94.158061 
0.900000 	 -94.158061 
0.905000 	 -94.206228 
0.910000 	 -94.182145 
0.915000 	 -94.182145 
0.920000 	 -94.133978 
0.925000 	 -94.158061 
0.930000 	 -94.182145 
0.935000 	 -94.109895 
0.940000 	 -94.158061 
0.945000 	 -94.158061 
0.950000 	 -94.109895 
0.955000 	 -94.061729 
0.960000 	 -94.158061 
0.965000 	 -94.109895 
0.970000 	 -94.037646 
0.975000 	 -94.109895 
0.980000 	 -94.085812 
0.985000 	 -94.013563 
0.990000 	 -94.013563 
0.995000 	 -94.013563 
1.000000 	 -93.941313 
1.005000 	 -94.085812 
1.010000 	 -94.061729 
1.015000 	 -94.109895 
1.020000 	 -94.133978 
1.025000 	 -94.061729 
1.030000 	 -94.085812 
1.035000 	 -94.109895 
1.040000 	 -94.085812 
1.045000 	 -94.158061 
1.050000 	 -94.109895 
1.055000 	 -94.182145 
1.060000 	 -94.206228 
1.065000 	 -94.182145 
1.070000 	 -94.206228 
1.075000 	 -94.230311 
1.080000 	 -94.182145 
1.085000 	 -94.182145 
1.090000 	 -94.206228 
1.095000 	 -94.254394 
1.100000 	 -94.206228 
1.105000 	 -94.254394 
1.110000 	 -94.302560 
1.115000 	 -94.254394 
1.120000 	 -94.302560 
1.125000 	 -94.350727 
1.130000 	 -94.350727 
1.135000 	 -94.350727 
1.140000 	 -94.422976 
1.145000 	 -94.495226 
1.150000 	 -94.543392 
1.155000 	 -94.591558 
1.160000 	 -94.591558 
1.165000 	 -94.663808 
1.170000 	 -94.591558 
1.175000 	 -94.519309 
1.180000 	 -94.471142 
1.185000 	 -94.254394 
1.190000 	 -94.061729 
1.195000 	 -93.796814 
1.200000 	 -93.411484 
1.205000 	 -92.953904 
1.210000 	 -92.327742 
1.215000 	 -91.677498 
1.220000 	 -91.075419 
1.225000 	 -90.377008 
1.230000 	 -89.678597 
1.235000 	 -88.594855 
1.240000 	 -87.824194 
1.245000 	 -86.812702 
1.250000 	 -85.777127 
1.255000 	 -84.934217 
1.260000 	 -83.537395 
1.265000 	 -82.501820 
1.270000 	 -81.249496 
1.275000 	 -80.021256 
1.280000 	 -78.552184 
1.285000 	 -77.083112 
1.290000 	 -75.614040 
1.295000 	 -73.928220 
1.300000 	 -72.410982 
1.305000 	 -70.676996 
1.310000 	 -68.870760 
1.315000 	 -67.112690 
1.320000 	 -65.186039 
1.325000 	 -63.066722 
1.330000 	 -61.067821 
1.335000 	 -59.044837 
1.340000 	 -56.877354 
1.345000 	 -54.782120 
1.350000 	 -52.566471 
1.355000 	 -50.182239 
1.360000 	 -48.062923 
1.365000 	 -45.413777 
1.370000 	 -43.005462 
1.375000 	 -40.500815 
1.380000 	 -37.899836 
1.385000 	 -35.347022 
1.390000 	 -32.601544 
1.395000 	 -29.976481 
1.400000 	 -27.303252 
1.405000 	 -24.413275 
1.410000 	 -21.860461 
1.415000 	 -19.235399 
1.420000 	 -16.321338 
1.425000 	 -13.527693 
1.430000 	 -10.517300 
1.435000 	 -7.723656 
1.440000 	 -4.616930 
1.445000 	 -1.823285 
1.450000 	 1.090775 
1.455000 	 3.884420 
1.460000 	 6.991146 
1.465000 	 9.760707 
1.470000 	 12.747017 
1.475000 	 15.492496 
1.480000 	 18.286141 
1.485000 	 21.200201 
1.490000 	 24.090178 
1.495000 	 26.570742 
1.500000 	 29.605219 
1.505000 	 32.302531 
1.510000 	 34.807178 
1.515000 	 37.311825 
1.520000 	 39.936888 
1.525000 	 42.465618 
1.530000 	 45.066597 
1.535000 	 47.089582 
1.540000 	 49.546062 
1.545000 	 52.026626 
1.550000 	 54.049610 
1.555000 	 56.771006 
1.560000 	 58.408659 
1.565000 	 60.648392 
1.570000 	 62.695459 
1.575000 	 64.598028 
1.580000 	 66.452430 
1.585000 	 68.258666 
1.590000 	 69.775904 
1.595000 	 71.582140 
1.600000 	 73.075295 
1.605000 	 74.712948 
1.610000 	 76.230186 
1.615000 	 77.699258 
1.620000 	 78.710750 
1.625000 	 80.348404 
1.630000 	 81.167231 
1.635000 	 82.347305 
1.640000 	 83.503296 
1.645000 	 84.466622 
1.650000 	 85.285449 
1.655000 	 86.176525 
1.660000 	 87.356599 
1.665000 	 87.838262 
1.670000 	 88.199509 
1.675000 	 88.657089 
1.680000 	 89.235085 
1.685000 	 89.813080 
1.690000 	 90.198410 
1.695000 	 90.391075 
1.700000 	 90.607824 
1.705000 	 90.704156 
1.710000 	 90.752323 
1.715000 	 90.728240 
1.720000 	 90.704156 
1.725000 	 90.559657 
1.730000 	 90.342909 
1.735000 	 90.029828 
1.740000 	 89.813080 
1.745000 	 89.162835 
1.750000 	 88.608923 
1.755000 	 88.079094 
1.760000 	 87.741930 
1.765000 	 87.260267 
1.770000 	 86.080193 
1.775000 	 85.285449 
1.780000 	 84.466622 
1.785000 	 83.455130 
1.790000 	 82.299139 
1.795000 	 81.167231 
1.800000 	 80.372487 
1.805000 	 78.807083 
1.810000 	 77.819674 
1.815000 	 76.230186 
1.820000 	 74.881530 
1.825000 	 73.219793 
1.830000 	 71.678472 
1.835000 	 70.088985 
1.840000 	 68.619913 
1.845000 	 66.621012 
1.850000 	 65.031524 
1.855000 	 63.008540 
1.860000 	 61.105972 
1.865000 	 58.793990 
1.870000 	 57.156336 
1.875000 	 54.796188 
1.880000 	 52.604622 
1.885000 	 50.292640 
1.890000 	 47.932492 
1.895000 	 45.861341 
1.900000 	 43.404860 
1.905000 	 41.020629 
1.910000 	 38.419649 
1.915000 	 36.300333 
1.920000 	 33.603021 
1.925000 	 31.002041 
1.930000 	 28.256562 
1.935000 	 25.655583 
1.940000 	 22.958271 
1.945000 	 20.405457 
1.950000 	 17.635896 
1.955000 	 15.083082 
1.960000 	 12.265354 
1.965000 	 9.423543 
1.970000 	 6.629899 
1.975000 	 3.715838 
1.980000 	 1.138942 
1.985000 	 -1.678786 
1.990000 	 -4.496514 
1.995000 	 -7.290159 
2.000000 	 -10.059721 
2.005000 	 -12.781116 
2.010000 	 -15.454345 
2.015000 	 -17.862659 
2.020000 	 -20.559972 
2.025000 	 -23.281367 
2.030000 	 -25.906430 
2.035000 	 -28.362910 
2.040000 	 -30.963890 
2.045000 	 -33.131373 
2.050000 	 -35.756436 
2.055000 	 -38.044335 
2.060000 	 -40.356316 
2.065000 	 -42.547883 
2.070000 	 -44.980280 
2.075000 	 -47.027348 
2.080000 	 -49.194831 
2.085000 	 -51.121482 
2.090000 	 -53.120383 
2.095000 	 -55.047035 
2.100000 	 -56.829187 
2.105000 	 -58.731756 
2.110000 	 -60.562075 
2.115000 	 -62.271978 
2.120000 	 -63.861466 
2.125000 	 -65.523203 
2.130000 	 -66.992274 
2.135000 	 -68.340930 
2.140000 	 -69.810002 
2.145000 	 -71.086409 
2.150000 	 -72.483231 
2.155000 	 -73.639222 
2.160000 	 -74.650714 
2.165000 	 -75.830788 
2.170000 	 -76.794114 
2.175000 	 -77.685191 
2.180000 	 -78.455851 
2.185000 	 -79.202429 
2.190000 	 -80.069422 
2.195000 	 -80.647417 
2.200000 	 -81.080914 
2.205000 	 -81.634826 
2.210000 	 -82.044240 
2.215000 	 -82.525903 
2.220000 	 -82.742651 
2.225000 	 -83.127981 
2.230000 	 -83.344730 
2.235000 	 -83.416979 
2.240000 	 -83.416979 
2.245000 	 -83.344730 
2.250000 	 -83.296563 
2.255000 	 -83.152064 
2.260000 	 -82.887150 
2.265000 	 -82.670402 
2.270000 	 -82.309154 
2.275000 	 -81.779325 
2.280000 	 -81.321745 
2.285000 	 -80.960498 
2.290000 	 -80.334336 
2.295000 	 -79.539593 
2.300000 	 -78.889348 
2.305000 	 -78.142770 
2.310000 	 -77.179445 
2.315000 	 -76.312451 
2.320000 	 -75.373209 
2.325000 	 -74.241301 
2.330000 	 -73.205726 
2.335000 	 -71.905236 
2.340000 	 -70.773328 
2.345000 	 -69.376506 
2.350000 	 -67.907434 
2.355000 	 -66.558778 
2.360000 	 -64.921124 
2.365000 	 -63.355720 
2.370000 	 -61.934814 
2.375000 	 -60.176744 
2.380000 	 -58.442758 
2.385000 	 -56.636522 
2.390000 	 -54.806203 
2.395000 	 -52.879552 
2.400000 	 -51.025150 
2.405000 	 -49.050332 
2.410000 	 -47.051431 
2.415000 	 -45.028447 
2.420000 	 -42.692382 
2.425000 	 -40.597148 
2.430000 	 -38.309249 
2.435000 	 -36.093600 
2.440000 	 -33.613036 
2.445000 	 -31.373304 
2.450000 	 -28.989072 
2.455000 	 -26.580758 
2.460000 	 -23.979778 
2.465000 	 -21.523297 
2.470000 	 -19.139066 
2.475000 	 -16.538086 
2.480000 	 -13.720359 
2.485000 	 -11.215712 
2.490000 	 -8.542482 
2.495000 	 -6.037835 
2.500000 	 -3.436856 
2.505000 	 -0.787710 
2.510000 	 1.789187 
2.515000 	 4.582831 
2.520000 	 7.376476 
2.525000 	 9.664375 
2.530000 	 12.433936 
2.535000 	 15.083082 
2.540000 	 17.515480 
2.545000 	 20.236875 
2.550000 	 22.428441 
2.555000 	 24.909005 
2.560000 	 27.509985 
2.565000 	 29.821967 
2.570000 	 32.447030 
2.575000 	 34.614513 
2.580000 	 36.926494 
2.585000 	 39.166227 
2.590000 	 41.381876 
2.595000 	 43.477110 
2.600000 	 45.644593 
2.605000 	 47.643494 
2.610000 	 49.570145 
2.615000 	 51.641296 
2.620000 	 53.543864 
2.625000 	 55.422350 
2.630000 	 57.397167 
2.635000 	 58.793990 
2.640000 	 60.696558 
2.645000 	 62.261963 
2.650000 	 63.803284 
2.655000 	 65.320522 
2.660000 	 66.621012 
2.665000 	 67.969668 
2.670000 	 69.270158 
2.675000 	 70.618814 
2.680000 	 71.630306 
2.685000 	 72.810380 
2.690000 	 73.581041 
2.695000 	 74.761115 
2.700000 	 75.363193 
2.705000 	 76.230186 
2.710000 	 77.073097 
2.715000 	 77.771508 
2.720000 	 78.277254 
2.725000 	 78.710750 
2.730000 	 79.096081 
2.735000 	 79.963074 
2.740000 	 80.131656 
2.745000 	 80.396570 
2.750000 	 80.492903 
2.755000 	 80.516986 
2.760000 	 80.492903 
2.765000 	 80.589236 
2.770000 	 80.444737 
2.775000 	 80.492903 
2.780000 	 80.348404 
2.785000 	 80.035323 
2.790000 	 79.481411 
2.795000 	 78.879332 
2.800000 	 78.566251 
2.805000 	 78.012339 
2.810000 	 77.482510 
2.815000 	 76.735933 
2.820000 	 75.917106 
2.825000 	 75.218694 
2.830000 	 74.423951 
2.835000 	 73.219793 
2.840000 	 72.280551 
2.845000 	 71.606223 
2.850000 	 70.064901 
2.855000 	 68.981160 
2.860000 	 67.680670 
2.865000 	 66.356097 
2.870000 	 65.007441 
2.875000 	 63.466120 
2.880000 	 62.045214 
2.885000 	 60.311228 
2.890000 	 58.601325 
2.895000 	 57.228585 
2.900000 	 55.229684 
2.905000 	 53.375282 
2.910000 	 51.617213 
2.915000 	 49.618312 
2.920000 	 47.643494 
2.925000 	 45.789092 
2.930000 	 43.549359 
2.935000 	 41.574541 
2.940000 	 39.551557 
2.945000 	 37.119160 
2.950000 	 35.096176 
2.955000 	 32.736027 
2.960000 	 30.399962 
2.965000 	 28.063897 
2.970000 	 25.679666 
2.975000 	 23.271352 
2.980000 	 21.007536 
2.985000 	 18.382473 
2.990000 	 16.214990 
2.995000 	 13.734426 
3.000000 	 11.253862 
3.005000 	 8.580633 
3.010000 	 6.027820 
3.015000 	 3.571339 
3.020000 	 1.211191 
3.025000 	 -1.341622 
3.030000 	 -4.063018 
3.035000 	 -6.423166 
3.040000 	 -8.759231 
3.045000 	 -11.287961 
3.050000 	 -13.648109 
3.055000 	 -16.249089 
3.060000 	 -18.464738 
3.065000 	 -20.728554 
3.070000 	 -23.185034 
3.075000 	 -25.521099 
3.080000 	 -27.640416 
3.085000 	 -30.000564 
3.090000 	 -32.143964 
3.095000 	 -34.335530 
3.100000 	 -36.478930 
3.105000 	 -38.453748 
3.110000 	 -40.500815 
3.115000 	 -42.355217 
3.120000 	 -44.450451 
3.125000 	 -46.112188 
3.130000 	 -48.135172 
3.135000 	 -49.580161 
3.140000 	 -51.482729 
3.145000 	 -53.072217 
3.150000 	 -54.613538 
3.155000 	 -56.299358 
3.160000 	 -57.503515 
3.165000 	 -58.948504 
3.170000 	 -60.297160 
3.175000 	 -61.645816 
3.180000 	 -62.753641 
3.185000 	 -64.005964 
3.190000 	 -65.161955 
3.195000 	 -66.414279 
3.200000 	 -67.184940 
3.205000 	 -68.051933 
3.210000 	 -68.967092 
3.215000 	 -69.737753 
3.220000 	 -70.484330 
3.225000 	 -71.086409 
3.230000 	 -71.736654 
3.235000 	 -72.386899 
3.240000 	 -72.892645 
3.245000 	 -73.302058 
3.250000 	 -73.566973 
3.255000 	 -73.807804 
3.260000 	 -73.952303 
3.265000 	 -74.144968 
3.270000 	 -74.144968 
3.275000 	 -74.241301 
3.280000 	 -74.096802 
3.285000 	 -74.024553 
3.290000 	 -73.904137 
3.295000 	 -73.711472 
3.300000 	 -73.326141 
3.305000 	 -73.085310 
3.310000 	 -72.627730 
3.315000 	 -71.977485 
3.320000 	 -71.471739 
3.325000 	 -70.893744 
3.330000 	 -70.147166 
3.335000 	 -69.400589 
3.340000 	 -68.557679 
3.345000 	 -67.714769 
3.350000 	 -66.871859 
3.355000 	 -65.836283 
3.360000 	 -64.800708 
3.365000 	 -63.596551 
3.370000 	 -62.488726 
3.375000 	 -61.212320 
3.380000 	 -59.984079 
3.385000 	 -58.659506 
3.390000 	 -57.166351 
3.395000 	 -55.865862 
3.400000 	 -54.228208 
3.405000 	 -52.759136 
3.410000 	 -51.145565 
3.415000 	 -49.363413 
3.420000 	 -47.918424 
3.425000 	 -45.919523 
3.430000 	 -44.257786 
3.435000 	 -42.282968 
3.440000 	 -40.428566 
3.445000 	 -38.477831 
3.450000 	 -36.551180 
3.455000 	 -34.431863 
3.460000 	 -32.360712 
3.465000 	 -30.458144 
3.470000 	 -28.073913 
3.475000 	 -25.954596 
3.480000 	 -23.738947 
3.485000 	 -21.547381 
3.490000 	 -19.403981 
3.495000 	 -16.995666 
3.500000 	 -14.707767 
3.505000 	 -12.395786 
3.510000 	 -10.107887 
3.515000 	 -7.771822 
3.520000 	 -5.194925 
3.525000 	 -3.051526 
3.530000 	 -0.643211 
3.535000 	 1.741020 
3.540000 	 4.149335 
3.545000 	 6.461317 
3.550000 	 8.797382 
3.555000 	 11.374278 
3.560000 	 13.638094 
3.565000 	 16.070491 
3.570000 	 18.069392 
3.575000 	 20.477707 
3.580000 	 22.572940 
3.585000 	 24.884922 
3.590000 	 27.004239 
3.595000 	 29.484803 
3.600000 	 31.339205 
3.605000 	 33.386272 
3.610000 	 35.409256 
3.615000 	 37.287742 
3.620000 	 39.431142 
3.625000 	 41.261461 
3.630000 	 43.188112 
3.635000 	 45.114764 
3.640000 	 46.776501 
3.645000 	 48.197406 
3.650000 	 49.931393 
3.655000 	 51.569046 
3.660000 	 53.134451 
3.665000 	 54.459024 
3.670000 	 56.217093 
3.675000 	 57.565749 
3.680000 	 58.553158 
3.685000 	 59.998147 
3.690000 	 61.298637 
3.695000 	 62.310129 
3.700000 	 63.393870 
3.705000 	 64.381279 
3.710000 	 65.416855 
3.715000 	 66.283848 
3.720000 	 67.006342 
3.725000 	 67.728836 
3.730000 	 68.475414 
3.735000 	 69.029326 
3.740000 	 69.462823 
3.745000 	 69.872236 
3.750000 	 70.594731 
3.755000 	 71.124560 
3.760000 	 71.389474 
3.765000 	 71.533973 
3.770000 	 71.582140 
3.775000 	 71.582140 
3.780000 	 71.630306 
3.785000 	 71.606223 
3.790000 	 71.558056 
3.795000 	 71.485807 
3.800000 	 71.293142 
3.805000 	 70.980061 
3.810000 	 70.353899 
3.815000 	 69.727737 
3.820000 	 69.294241 
3.825000 	 68.932994 
3.830000 	 68.210499 
3.835000 	 67.632504 
3.840000 	 66.693261 
3.845000 	 66.043016 
3.850000 	 65.224189 
3.855000 	 64.284947 
3.860000 	 63.273455 
3.865000 	 62.261963 
3.870000 	 61.154138 
3.875000 	 60.022230 
3.880000 	 58.553158 
3.885000 	 57.493500 
3.890000 	 56.241176 
3.895000 	 54.483107 
3.900000 	 53.134451 
3.905000 	 51.713545 
3.910000 	 50.148141 
3.915000 	 48.365988 
3.920000 	 46.921000 
3.925000 	 45.403761 
3.930000 	 43.404860 
3.935000 	 41.646791 
3.940000 	 39.792389 
3.945000 	 37.841654 
3.950000 	 36.300333 
3.955000 	 34.205099 
3.960000 	 32.109866 
3.965000 	 29.942383 
3.970000 	 27.943482 
3.975000 	 25.751915 
3.980000 	 23.801181 
3.985000 	 21.561448 
3.990000 	 19.682963 
3.995000 	 17.395064 
4.000000 	 15.155332 
4.005000 	 12.987849 
4.010000 	 10.699950 
4.015000 	 8.315719 
4.020000 	 5.979654 
4.025000 	 3.836254 
4.030000 	 1.524272 
4.035000 	 -0.739544 
4.040000 	 -2.931110 
4.045000 	 -5.050427 
4.050000 	 -7.434658 
4.055000 	 -9.578058 
4.060000 	 -11.745541 
4.065000 	 -13.888941 
4.070000 	 -16.225006 
4.075000 	 -18.079408 
4.080000 	 -20.319140 
4.085000 	 -22.438457 
4.090000 	 -24.341025 
4.095000 	 -26.460342 
4.100000 	 -28.507409 
4.105000 	 -30.626726 
4.110000 	 -32.240297 
4.115000 	 -34.215115 
4.120000 	 -36.021350 
4.125000 	 -37.683087 
4.130000 	 -39.368908 
4.135000 	 -41.271476 
4.140000 	 -42.716465 
4.145000 	 -44.546784 
4.150000 	 -45.799107 
4.155000 	 -47.364512 
4.160000 	 -48.785417 
4.165000 	 -50.037741 
4.170000 	 -51.530896 
4.175000 	 -52.662803 
4.180000 	 -53.866961 
4.185000 	 -55.071118 
4.190000 	 -56.275275 
4.195000 	 -57.190435 
4.200000 	 -58.250093 
4.205000 	 -59.189336 
4.210000 	 -60.080412 
4.215000 	 -60.706574 
4.220000 	 -61.645816 
4.225000 	 -62.392394 
4.230000 	 -62.922223 
4.235000 	 -63.379803 
4.240000 	 -64.005964 
4.245000 	 -64.487627 
4.250000 	 -64.776625 
4.255000 	 -65.113789 
4.260000 	 -65.426870 
4.265000 	 -65.643618 
4.270000 	 -65.836283 
4.275000 	 -65.932616 
4.280000 	 -66.004865 
4.285000 	 -65.812200 
4.290000 	 -65.739951 
4.295000 	 -65.571369 
4.300000 	 -65.282371 
4.305000 	 -64.993373 
4.310000 	 -64.656209 
4.315000 	 -64.343128 
4.320000 	 -63.861466 
4.325000 	 -63.211221 
4.330000 	 -62.753641 
4.335000 	 -62.199729 
4.340000 	 -61.332735 
4.345000 	 -60.658407 
4.350000 	 -59.839580 
4.355000 	 -58.972587 
4.360000 	 -58.081511 
4.365000 	 -56.973686 
4.370000 	 -56.130776 
4.375000 	 -54.854370 
4.380000 	 -53.746545 
4.385000 	 -52.590554 
4.390000 	 -51.362314 
4.395000 	 -49.941408 
4.400000 	 -48.785417 
4.405000 	 -47.316345 
4.410000 	 -45.750941 
4.415000 	 -44.498617 
4.420000 	 -42.788714 
4.425000 	 -41.295559 
4.430000 	 -39.537490 
4.435000 	 -37.875753 
4.440000 	 -36.165849 
4.445000 	 -34.431863 
4.450000 	 -32.577461 
4.455000 	 -30.963890 
4.460000 	 -28.989072 
4.465000 	 -27.062421 
4.470000 	 -25.159852 
4.475000 	 -23.209118 
4.480000 	 -21.113884 
4.485000 	 -19.379898 
4.490000 	 -17.091999 
4.495000 	 -15.117181 
4.500000 	 -13.094197 
4.505000 	 -10.854464 
4.510000 	 -8.831480 
4.515000 	 -6.688080 
4.520000 	 -4.544680 
4.525000 	 -2.569863 
4.530000 	 -0.354213 
4.535000 	 1.789187 
4.540000 	 3.932586 
4.545000 	 6.003737 
4.550000 	 8.219386 
4.555000 	 10.459119 
4.560000 	 12.530269 
4.565000 	 14.553253 
4.570000 	 16.479905 
4.575000 	 18.478806 
4.580000 	 20.501790 
4.585000 	 22.452525 
4.590000 	 24.475509 
4.595000 	 26.113163 
4.600000 	 28.184313 
4.605000 	 30.062798 
4.610000 	 31.941284 
4.615000 	 33.795686 
4.620000 	 35.385173 
4.625000 	 36.998744 
4.630000 	 38.780897 
4.635000 	 40.370384 
4.640000 	 41.839456 
4.645000 	 43.453027 
4.650000 	 45.187013 
4.655000 	 46.294838 
4.660000 	 47.643494 
4.665000 	 49.064399 
4.670000 	 50.124058 
4.675000 	 51.544963 
4.680000 	 52.628705 
4.685000 	 53.760613 
4.690000 	 54.675772 
4.695000 	 55.879929 
4.700000 	 57.035920 
4.705000 	 57.782498 
4.710000 	 58.336410 
4.715000 	 58.938489 
4.720000 	 59.925898 
4.725000 	 60.455727 
4.730000 	 61.105972 
4.735000 	 61.611718 
4.740000 	 62.093381 
4.745000 	 62.358295 
4.750000 	 62.695459 
4.755000 	 63.032623 
4.760000 	 63.153039 
4.765000 	 63.345704 
4.770000 	 63.393870 
4.775000 	 63.345704 
4.780000 	 63.297538 
4.785000 	 63.201205 
4.790000 	 62.984457 
4.795000 	 62.864041 
4.800000 	 62.550960 
4.805000 	 62.189713 
4.810000 	 61.708050 
4.815000 	 61.419053 
4.820000 	 60.841057 
4.825000 	 60.214895 
4.830000 	 59.636900 
4.835000 	 58.769907 
4.840000 	 58.095579 
4.845000 	 57.349001 
4.850000 	 56.674673 
4.855000 	 55.470516 
4.860000 	 54.218192 
4.865000 	 53.278950 
4.870000 	 52.411956 
4.875000 	 51.207799 
4.880000 	 49.786894 
4.885000 	 48.703152 
4.890000 	 47.209997 
4.895000 	 46.054006 
4.900000 	 44.825766 
4.905000 	 43.212195 
4.910000 	 41.694957 
4.915000 	 40.322218 
4.920000 	 38.684564 
4.925000 	 36.878328 
4.930000 	 35.385173 
4.935000 	 33.843852 
4.940000 	 32.085782 
4.945000 	 30.207297 
4.950000 	 28.401061 
4.955000 	 26.474410 
4.960000 	 24.812673 
4.965000 	 22.910104 
4.970000 	 21.103869 
4.975000 	 19.225383 
4.980000 	 17.322815 
4.985000 	 15.347997 
4.990000 	 13.445429 
4.995000 	 11.277946 
5.000000 	 9.254961 
5.005000 	 7.448726 
5.010000 	 5.305326 
5.015000 	 3.137843 
5.020000 	 1.187108 
5.025000 	 -0.908126 
5.030000 	 -2.979276 
5.035000 	 -4.761429 
5.040000 	 -6.977078 
5.045000 	 -8.783314 
5.050000 	 -10.685882 
5.055000 	 -12.853365 
5.060000 	 -14.611435 
5.065000 	 -16.706668 
5.070000 	 -18.464738 
5.075000 	 -20.246891 
5.080000 	 -22.173542 
5.085000 	 -23.931612 
5.090000 	 -25.761931 
5.095000 	 -27.375502 
5.100000 	 -29.109488 
5.105000 	 -30.939807 
5.110000 	 -32.336629 
5.115000 	 -34.094699 
5.120000 	 -35.515604 
5.125000 	 -37.032843 
5.130000 	 -38.405582 
5.135000 	 -39.922820 
5.140000 	 -41.391892 
5.145000 	 -42.620132 
5.150000 	 -43.752040 
5.155000 	 -45.221112 
5.160000 	 -46.088105 
5.165000 	 -47.364512 
5.170000 	 -48.592752 
5.175000 	 -49.435662 
5.180000 	 -50.423071 
5.185000 	 -51.314147 
5.190000 	 -52.132974 
5.195000 	 -52.999967 
5.200000 	 -53.794711 
5.205000 	 -54.444956 
5.210000 	 -55.047035 
5.215000 	 -55.697280 
5.220000 	 -56.299358 
5.225000 	 -56.636522 
5.230000 	 -56.949603 
5.235000 	 -57.262684 
5.240000 	 -57.623931 
5.245000 	 -57.912929 
5.250000 	 -58.081511 
5.255000 	 -58.226010 
5.260000 	 -58.298259 
5.265000 	 -58.298259 
5.270000 	 -58.250093 
5.275000 	 -58.226010 
5.280000 	 -57.985178 
5.285000 	 -57.768430 
5.290000 	 -57.455349 
5.295000 	 -57.070019 
5.300000 	 -56.829187 
5.305000 	 -56.443857 
5.310000 	 -55.986277 
5.315000 	 -55.480531 
5.320000 	 -54.758037 
5.325000 	 -54.131875 
5.330000 	 -53.481630 
5.335000 	 -52.686887 
5.340000 	 -51.843976 
5.345000 	 -51.049233 
5.350000 	 -50.037741 
5.355000 	 -49.194831 
5.360000 	 -48.303754 
5.365000 	 -47.171846 
5.370000 	 -45.943606 
5.375000 	 -44.956197 
5.380000 	 -43.559375 
5.385000 	 -42.379301 
5.390000 	 -41.247393 
5.395000 	 -39.778321 
5.400000 	 -38.357415 
5.405000 	 -37.032843 
5.410000 	 -35.539688 
5.415000 	 -34.094699 
5.420000 	 -32.408879 
5.425000 	 -31.084306 
5.430000 	 -29.253987 
5.435000 	 -27.640416 
5.440000 	 -25.978679 
5.445000 	 -24.268776 
5.450000 	 -22.679288 
5.455000 	 -20.728554 
5.460000 	 -19.259482 
5.465000 	 -17.284664 
5.470000 	 -15.647010 
5.475000 	 -13.575860 
5.480000 	 -11.769624 
5.485000 	 -9.987471 
5.490000 	 -8.181235 
5.495000 	 -6.230501 
5.500000 	 -4.303849 
5.505000 	 -2.353114 
5.510000 	 -0.474629 
5.515000 	 1.427939 
5.520000 	 3.282342 
5.525000 	 5.377575 
5.530000 	 7.400559 
5.535000 	 8.941880 
5.540000 	 11.013031 
5.545000 	 12.939682 
5.550000 	 14.601419 
5.555000 	 16.455822 
5.560000 	 18.165725 
5.565000 	 20.116460 
5.570000 	 21.609615 
5.575000 	 23.343601 
5.580000 	 24.981255 
5.585000 	 26.642992 
5.590000 	 28.232479 
5.595000 	 29.870133 
5.600000 	 31.507787 
5.605000 	 32.880526 
5.610000 	 34.518180 
5.615000 	 36.107668 
5.620000 	 37.191409 
5.625000 	 38.636398 
5.630000 	 40.081386 
5.635000 	 41.237377 
5.640000 	 42.441535 
5.645000 	 43.477110 
5.650000 	 44.849849 
5.655000 	 45.885424 
5.660000 	 46.848750 
5.665000 	 47.715743 
5.670000 	 48.703152 
5.675000 	 49.570145 
5.680000 	 50.364889 
5.685000 	 51.135550 
5.690000 	 51.978460 
5.695000 	 52.484206 
5.700000 	 53.110368 
5.705000 	 53.567947 
5.710000 	 53.953278 
5.715000 	 54.314525 
5.720000 	 54.820271 
5.725000 	 55.157435 
5.730000 	 55.470516 
5.735000 	 55.759514 
5.740000 	 55.855846 
5.745000 	 55.952179 
5.750000 	 55.952179 
5.755000 	 55.807680 
5.760000 	 55.807680 
5.765000 	 55.711347 
5.770000 	 55.470516 
5.775000 	 55.061102 
5.780000 	 54.868437 
5.785000 	 54.218192 
5.790000 	 53.977361 
5.795000 	 53.640197 
5.800000 	 53.038118 
5.805000 	 52.556455 
5.810000 	 52.002543 
5.815000 	 51.207799 
5.820000 	 50.364889 
5.825000 	 49.570145 
5.830000 	 48.823568 
5.835000 	 47.763910 
5.840000 	 47.065498 
5.845000 	 46.029923 
5.850000 	 45.211096 
5.855000 	 43.766108 
5.860000 	 42.875031 
5.865000 	 41.574541 
5.870000 	 40.370384 
5.875000 	 39.166227 
5.880000 	 37.793488 
5.885000 	 36.517081 
5.890000 	 35.072092 
5.895000 	 33.771603 
5.900000 	 32.422946 
5.905000 	 30.713043 
5.910000 	 29.532969 
5.915000 	 27.678567 
5.920000 	 25.968664 
5.925000 	 24.620008 
5.930000 	 22.765605 
5.935000 	 21.272451 
5.940000 	 19.755212 
5.945000 	 17.804478 
5.950000 	 16.263156 
5.955000 	 14.432837 
5.960000 	 12.819267 
5.965000 	 10.940781 
5.970000 	 9.158629 
5.975000 	 7.472809 
5.980000 	 5.497991 
5.985000 	 3.643589 
5.990000 	 1.885519 
5.995000 	 0.247865 
6.000000 	 -1.678786 
6.005000 	 -3.509105 
6.010000 	 -5.122676 
6.015000 	 -7.049328 
6.020000 	 -8.662898 
6.025000 	 -10.517300 
6.030000 	 -12.203120 
6.035000 	 -13.864857 
6.040000 	 -15.791509 
6.045000 	 -17.260581 
6.050000 	 -19.139066 
6.055000 	 -20.439556 
6.060000 	 -22.221709 
6.065000 	 -23.738947 
6.070000 	 -25.208019 
6.075000 	 -26.773423 
6.080000 	 -28.073913 
6.085000 	 -29.518901 
6.090000 	 -31.012056 
6.095000 	 -32.240297 
6.100000 	 -33.588953 
6.105000 	 -34.841276 
6.110000 	 -36.165849 
6.115000 	 -37.249591 
6.120000 	 -38.429665 
6.125000 	 -39.681988 
6.130000 	 -40.645314 
6.135000 	 -41.656806 
6.140000 	 -42.571966 
6.145000 	 -43.559375 
6.150000 	 -44.594950 
6.155000 	 -45.341527 
6.160000 	 -45.991772 
6.165000 	 -46.786516 
6.170000 	 -47.509010 
6.175000 	 -48.207422 
6.180000 	 -48.737251 
6.185000 	 -49.170747 
6.190000 	 -49.531995 
6.195000 	 -49.965491 
6.200000 	 -50.423071 
6.205000 	 -50.760235 
6.210000 	 -51.001066 
6.215000 	 -51.217815 
6.220000 	 -51.314147 
6.225000 	 -51.434563 
6.230000 	 -51.482729 
6.235000 	 -51.482729 
6.240000 	 -51.410480 
6.245000 	 -51.362314 
6.250000 	 -51.193732 
6.255000 	 -51.025150 
6.260000 	 -50.712069 
6.265000 	 -50.471237 
6.270000 	 -49.941408 
6.275000 	 -49.580161 
6.280000 	 -49.242997 
6.285000 	 -48.785417 
6.290000 	 -48.255588 
6.295000 	 -47.605343 
6.300000 	 -46.979181 
6.305000 	 -46.112188 
6.310000 	 -45.486026 
6.315000 	 -44.859865 
6.320000 	 -43.800206 
6.325000 	 -42.957296 
6.330000 	 -42.018053 
6.335000 	 -41.030645 
6.340000 	 -40.019152 
6.345000 	 -38.887245 
6.350000 	 -37.779420 
6.355000 	 -36.671595 
6.360000 	 -35.419272 
6.365000 	 -34.263281 
6.370000 	 -32.890542 
6.375000 	 -31.638218 
6.380000 	 -30.578560 
6.385000 	 -29.037239 
6.390000 	 -27.568167 
6.395000 	 -26.219511 
6.400000 	 -24.702272 
6.405000 	 -23.353616 
6.410000 	 -21.932711 
6.415000 	 -20.174641 
6.420000 	 -18.898235 
6.425000 	 -17.067916 
6.430000 	 -15.598844 
6.435000 	 -13.840774 
6.440000 	 -12.347619 
6.445000 	 -10.589550 
6.450000 	 -8.903730 
6.455000 	 -7.386492 
6.460000 	 -5.508006 
6.465000 	 -4.111184 
6.470000 	 -2.280865 
6.475000 	 -0.643211 
6.480000 	 1.187108 
6.485000 	 2.800679 
6.490000 	 4.606914 
6.495000 	 6.003737 
6.500000 	 7.978555 
6.505000 	 9.447627 
6.510000 	 11.253862 
6.515000 	 12.963766 
6.520000 	 14.481004 
6.525000 	 16.118658 
6.530000 	 17.587729 
6.535000 	 19.225383 
6.540000 	 20.598122 
6.545000 	 21.994945 
6.550000 	 23.488100 
6.555000 	 24.981255 
6.560000 	 26.185412 
6.565000 	 27.774900 
6.570000 	 29.316221 
6.575000 	 30.351796 
6.580000 	 31.844951 
6.585000 	 32.904609 
6.590000 	 34.325515 
6.595000 	 35.361090 
6.600000 	 36.492998 
6.605000 	 37.456324 
6.610000 	 38.443733 
6.615000 	 39.647890 
6.620000 	 40.490800 
6.625000 	 41.381876 
6.630000 	 42.176620 
6.635000 	 43.091780 
6.640000 	 43.621609 
6.645000 	 44.512685 
6.650000 	 45.403761 
6.655000 	 45.813175 
6.660000 	 46.367087 
6.665000 	 46.896916 
6.670000 	 47.209997 
6.675000 	 47.595328 
6.680000 	 47.908408 
6.685000 	 48.197406 
6.690000 	 48.510487 
6.695000 	 48.799485 
6.700000 	 49.016233 
6.705000 	 49.088483 
6.710000 	 49.112566 
6.715000 	 49.064399 
6.720000 	 49.064399 
6.725000 	 48.992150 
6.730000 	 48.775402 
6.735000 	 48.414154 
6.740000 	 48.149240 
6.745000 	 47.860242 
6.750000 	 47.571244 
6.755000 	 47.209997 
6.760000 	 46.921000 
6.765000 	 46.294838 
6.770000 	 45.813175 
6.775000 	 45.331512 
6.780000 	 44.440436 
6.785000 	 43.645692 
6.790000 	 43.115863 
6.795000 	 42.248869 
6.800000 	 41.502292 
6.805000 	 40.563049 
6.810000 	 39.768306 
6.815000 	 38.708647 
6.820000 	 37.673072 
6.825000 	 36.565247 
6.830000 	 35.577838 
6.835000 	 34.518180 
6.840000 	 33.241773 
6.845000 	 32.278448 
6.850000 	 30.929791 
6.855000 	 29.797884 
6.860000 	 28.328812 
6.865000 	 26.931989 
6.870000 	 25.607417 
6.875000 	 24.282844 
6.880000 	 22.861938 
6.885000 	 21.513282 
6.890000 	 20.260958 
6.895000 	 18.551055 
6.900000 	 17.274649 
6.905000 	 15.733327 
6.910000 	 14.192006 
6.915000 	 12.722934 
6.920000 	 11.109364 
6.925000 	 9.375377 
6.930000 	 7.978555 
6.935000 	 6.148236 
6.940000 	 4.919995 
6.945000 	 3.113760 
6.950000 	 1.427939 
6.955000 	 -0.041132 
6.960000 	 -1.678786 
6.965000 	 -3.244191 
6.970000 	 -4.761429 
6.975000 	 -6.350916 
6.980000 	 -8.084903 
6.985000 	 -9.433559 
6.990000 	 -10.926714 
6.995000 	 -12.588451 
7.000000 	 -13.864857 
7.005000 	 -15.598844 
7.010000 	 -16.827084 
7.015000 	 -18.296156 
7.020000 	 -19.741145 
7.025000 	 -20.993468 
7.030000 	 -22.462540 
7.035000 	 -23.811196 
7.040000 	 -24.967187 
7.045000 	 -26.339926 
7.050000 	 -27.471834 
7.055000 	 -28.844573 
7.060000 	 -29.880149 
7.065000 	 -31.108389 
7.070000 	 -32.071715 
7.075000 	 -33.107290 
7.080000 	 -34.239198 
7.085000 	 -35.130274 
7.090000 	 -36.093600 
7.095000 	 -37.008759 
7.100000 	 -37.827586 
7.105000 	 -38.646413 
7.110000 	 -39.392991 
7.115000 	 -40.139568 
7.120000 	 -40.789813 
7.125000 	 -41.512307 
7.130000 	 -41.993970 
7.135000 	 -42.547883 
7.140000 	 -43.005462 
7.145000 	 -43.390793 
7.150000 	 -43.727957 
7.155000 	 -44.330035 
7.160000 	 -44.667199 
7.165000 	 -44.883948 
7.170000 	 -45.100696 
7.175000 	 -45.172945 
7.180000 	 -45.245195 
7.185000 	 -45.365611 
7.190000 	 -45.365611 
7.195000 	 -45.293361 
7.200000 	 -45.221112 
7.205000 	 -45.148862 
7.210000 	 -44.980280 
7.215000 	 -44.859865 
7.220000 	 -44.546784 
7.225000 	 -44.041038 
7.230000 	 -43.752040 
7.235000 	 -43.342626 
7.240000 	 -42.836880 
7.245000 	 -42.427467 
7.250000 	 -41.873555 
7.255000 	 -41.464141 
7.260000 	 -40.765730 
7.265000 	 -40.019152 
7.270000 	 -39.320741 
7.275000 	 -38.598247 
7.280000 	 -37.755337 
7.285000 	 -37.008759 
7.290000 	 -36.093600 
7.295000 	 -35.154357 
7.300000 	 -34.239198 
7.305000 	 -33.203623 
7.310000 	 -32.216214 
7.315000 	 -31.228805 
7.320000 	 -30.072814 
7.325000 	 -28.989072 
7.330000 	 -27.736749 
7.335000 	 -26.725257 
7.340000 	 -25.424767 
7.345000 	 -24.220610 
7.350000 	 -22.992369 
7.355000 	 -21.715963 
7.360000 	 -20.319140 
7.365000 	 -19.283565 
7.370000 	 -17.597745 
7.375000 	 -16.369504 
7.380000 	 -14.876350 
7.385000 	 -13.479527 
7.390000 	 -11.962289 
7.395000 	 -10.589550 
7.400000 	 -9.144561 
7.405000 	 -7.819988 
7.410000 	 -6.230501 
7.415000 	 -4.616930 
7.420000 	 -3.268274 
7.425000 	 -1.775119 
7.430000 	 -0.354213 
7.435000 	 1.283441 
7.440000 	 2.656180 
7.445000 	 4.125252 
7.450000 	 5.642490 
7.455000 	 7.352393 
7.460000 	 8.508384 
7.465000 	 10.218287 
7.470000 	 11.518777 
7.475000 	 13.084181 
7.480000 	 14.408754 
7.485000 	 15.709244 
7.490000 	 17.057900 
7.495000 	 18.358390 
7.500000 	 19.851545 
7.505000 	 21.079785 
7.510000 	 22.091277 
7.515000 	 23.367684 
7.520000 	 24.764506 
7.525000 	 25.775999 
7.530000 	 26.835657 
7.535000 	 28.063897 
7.540000 	 29.388470 
7.545000 	 30.159131 
7.550000 	 31.291039 
7.555000 	 32.374780 
7.560000 	 33.097275 
7.565000 	 34.181016 
7.570000 	 34.927593 
7.575000 	 35.794587 
7.580000 	 36.565247 
7.585000 	 37.119160 
7.590000 	 37.913903 
7.595000 	 38.467816 
7.600000 	 39.214393 
7.605000 	 39.816472 
7.610000 	 40.370384 
7.615000 	 40.755714 
7.620000 	 41.237377 
7.625000 	 41.550458 
7.630000 	 41.767207 
7.635000 	 42.152537 
7.640000 	 42.369285 
7.645000 	 42.634200 
7.650000 	 42.850948 
7.655000 	 42.923198 
7.660000 	 43.019530 
7.665000 	 42.995447 
7.670000 	 42.923198 
7.675000 	 42.778699 
7.680000 	 42.682366 
7.685000 	 42.465618 
7.690000 	 42.152537 
7.695000 	 41.863539 
7.700000 	 41.646791 
7.705000 	 41.357793 
7.710000 	 40.996546 
7.715000 	 40.394467 
7.720000 	 40.057303 
7.725000 	 39.575640 
7.730000 	 39.021728 
7.735000 	 38.251067 
7.740000 	 37.745321 
7.745000 	 36.902411 
7.750000 	 36.372582 
7.755000 	 35.481506 
7.760000 	 34.662679 
7.765000 	 33.916101 
7.770000 	 32.832360 
7.775000 	 32.182115 
7.780000 	 31.170623 
7.785000 	 30.086881 
7.790000 	 29.316221 
7.795000 	 27.967565 
7.800000 	 26.859740 
7.805000 	 25.751915 
7.810000 	 24.788590 
7.815000 	 23.439934 
7.820000 	 22.235776 
7.825000 	 21.224284 
7.830000 	 20.116460 
7.835000 	 18.599221 
7.840000 	 17.539563 
7.845000 	 16.239073 
7.850000 	 14.866334 
7.855000 	 13.734426 
7.860000 	 12.241271 
7.865000 	 10.916698 
7.870000 	 9.423543 
7.875000 	 8.123054 
7.880000 	 6.750314 
7.885000 	 5.353492 
7.890000 	 3.836254 
7.895000 	 2.487598 
7.900000 	 1.163025 
7.905000 	 -0.354213 
7.910000 	 -1.702869 
7.915000 	 -3.099692 
7.920000 	 -4.472431 
7.925000 	 -5.772921 
7.930000 	 -7.266076 
7.935000 	 -8.542482 
7.940000 	 -9.963388 
7.945000 	 -11.191628 
7.950000 	 -12.540284 
7.955000 	 -13.744442 
7.960000 	 -15.044932 
7.965000 	 -16.393588 
7.970000 	 -17.429163 
7.975000 	 -18.850068 
7.980000 	 -19.909727 
7.985000 	 -20.921219 
7.990000 	 -22.293958 
7.995000 	 -23.305450 
8.000000 	 -24.268776 
8.005000 	 -25.400684 
8.010000 	 -26.436259 
8.015000 	 -27.351418 
8.020000 	 -28.266578 
8.025000 	 -29.157654 
8.030000 	 -30.048731 
8.035000 	 -31.060223 
8.040000 	 -31.686384 
8.045000 	 -32.408879 
8.050000 	 -33.179539 
8.055000 	 -33.974283 
8.060000 	 -34.624528 
8.065000 	 -35.202524 
8.070000 	 -35.804602 
8.075000 	 -36.382598 
8.080000 	 -36.816094 
8.085000 	 -37.201425 
8.090000 	 -37.586755 
8.095000 	 -37.996168 
8.100000 	 -38.381499 
8.105000 	 -38.718663 
8.110000 	 -38.863162 
8.115000 	 -39.007660 
8.120000 	 -39.224409 
8.125000 	 -39.320741 
8.130000 	 -39.417074 
8.135000 	 -39.417074 
8.140000 	 -39.368908 
8.145000 	 -39.344824 
8.150000 	 -39.248492 
8.155000 	 -39.103993 
8.160000 	 -38.863162 
8.165000 	 -38.718663 
8.170000 	 -38.453748 
8.175000 	 -38.164750 
8.180000 	 -37.851669 
8.185000 	 -37.370007 
8.190000 	 -37.008759 
8.195000 	 -36.647512 
8.200000 	 -36.141766 
8.205000 	 -35.515604 
8.210000 	 -35.009858 
8.215000 	 -34.383697 
8.220000 	 -33.757535 
8.225000 	 -32.914625 
8.230000 	 -32.192130 
8.235000 	 -31.638218 
8.240000 	 -30.915724 
8.245000 	 -29.880149 
8.250000 	 -29.061322 
8.255000 	 -28.122079 
8.260000 	 -27.182836 
8.265000 	 -26.339926 
8.270000 	 -25.256185 
8.275000 	 -24.220610 
8.280000 	 -23.209118 
8.285000 	 -22.269875 
8.290000 	 -20.993468 
8.295000 	 -20.006059 
8.300000 	 -19.114983 
8.305000 	 -17.621828 
8.310000 	 -16.610336 
8.315000 	 -15.502511 
8.320000 	 -14.057523 
8.325000 	 -13.094197 
8.330000 	 -11.649208 
8.335000 	 -10.445051 
8.340000 	 -9.144561 
8.345000 	 -8.108986 
8.350000 	 -6.712163 
8.355000 	 -5.291258 
8.360000 	 -4.303849 
8.365000 	 -3.003359 
8.370000 	 -1.558371 
8.375000 	 -0.306047 
8.380000 	 1.163025 
8.385000 	 2.415348 
8.390000 	 3.619506 
8.395000 	 5.064494 
8.400000 	 6.051903 
8.405000 	 7.617308 
8.410000 	 8.628800 
8.415000 	 10.097871 
8.420000 	 11.302029 
8.425000 	 12.626602 
8.430000 	 13.758509 
8.435000 	 14.866334 
8.440000 	 16.166824 
8.445000 	 17.346898 
8.450000 	 18.141642 
8.455000 	 19.562547 
8.460000 	 20.501790 
8.465000 	 21.489199 
8.470000 	 22.356192 
8.475000 	 23.367684 
8.480000 	 24.427342 
8.485000 	 25.318419 
8.490000 	 26.040913 
8.495000 	 27.124655 
8.500000 	 27.967565 
8.505000 	 28.979057 
8.510000 	 29.749717 
8.515000 	 30.231380 
8.520000 	 31.074290 
8.525000 	 31.748618 
8.530000 	 32.519279 
8.535000 	 32.856443 
8.540000 	 33.651187 
8.545000 	 34.156933 
8.550000 	 34.542263 
8.555000 	 34.951677 
8.560000 	 35.385173 
8.565000 	 35.794587 
8.570000 	 36.252166 
8.575000 	 36.444832 
8.580000 	 36.565247 
8.585000 	 36.733829 
8.590000 	 36.854245 
8.595000 	 36.878328 
8.600000 	 36.926494 
8.605000 	 36.974661 
8.610000 	 36.878328 
8.615000 	 36.926494 
8.620000 	 36.781996 
8.625000 	 36.757912 
8.630000 	 36.565247 
8.635000 	 36.468915 
8.640000 	 36.372582 
8.645000 	 36.035418 
8.650000 	 35.481506 
8.655000 	 35.144342 
8.660000 	 34.734928 
8.665000 	 34.421847 
8.670000 	 33.940185 
8.675000 	 33.217690 
8.680000 	 32.711944 
8.685000 	 32.278448 
8.690000 	 31.604120 
8.695000 	 30.953875 
8.700000 	 30.207297 
8.705000 	 29.653385 
8.710000 	 28.762308 
8.715000 	 27.895315 
8.720000 	 27.052405 
8.725000 	 26.137246 
8.730000 	 25.270253 
8.735000 	 24.571841 
8.740000 	 23.584432 
8.745000 	 22.548857 
8.750000 	 21.585531 
8.755000 	 20.694455 
8.760000 	 19.803379 
8.765000 	 18.478806 
8.770000 	 17.515480 
8.775000 	 16.407655 
8.780000 	 15.420246 
8.785000 	 14.288339 
8.790000 	 13.325013 
8.795000 	 11.928190 
8.800000 	 10.940781 
8.805000 	 9.568042 
8.810000 	 8.315719 
8.815000 	 7.496892 
8.820000 	 5.931487 
8.825000 	 5.040411 
8.830000 	 3.571339 
8.835000 	 2.463515 
8.840000 	 1.259357 
8.845000 	 0.079283 
8.850000 	 -1.148957 
8.855000 	 -2.425364 
8.860000 	 -3.533188 
8.865000 	 -4.665096 
8.870000 	 -5.941503 
8.875000 	 -7.217910 
8.880000 	 -8.277568 
8.885000 	 -9.337226 
8.890000 	 -10.517300 
8.895000 	 -11.625125 
8.900000 	 -12.853365 
8.905000 	 -13.816691 
8.910000 	 -15.020848 
8.915000 	 -16.176839 
8.920000 	 -16.923417 
8.925000 	 -17.862659 
8.930000 	 -19.187232 
8.935000 	 -19.981976 
8.940000 	 -20.704470 
8.945000 	 -21.884545 
8.950000 	 -22.703371 
8.955000 	 -23.618531 
8.960000 	 -24.292859 
8.965000 	 -25.135769 
8.970000 	 -25.882347 
8.975000 	 -26.653007 
8.980000 	 -27.279169 
8.985000 	 -27.881248 
8.990000 	 -28.627825 
8.995000 	 -29.229904 
9.000000 	 -29.735650 
9.005000 	 -30.506310 
9.010000 	 -30.987973 
9.015000 	 -31.397387 
9.020000 	 -31.710468 
9.025000 	 -32.071715 
9.030000 	 -32.408879 
9.035000 	 -32.721960 
9.040000 	 -33.083207 
9.045000 	 -33.227706 
9.050000 	 -33.444454 
9.055000 	 -33.661202 
9.060000 	 -33.926117 
9.065000 	 -33.998366 
9.070000 	 -33.998366 
9.075000 	 -34.022449 
9.080000 	 -34.022449 
9.085000 	 -33.950200 
9.090000 	 -33.902034 
9.095000 	 -33.637119 
9.100000 	 -33.372205 
9.105000 	 -33.227706 
9.110000 	 -33.035041 
9.115000 	 -32.697876 
9.120000 	 -32.408879 
9.125000 	 -32.143964 
9.130000 	 -31.734551 
9.135000 	 -31.397387 
9.140000 	 -31.084306 
9.145000 	 -30.626726 
9.150000 	 -29.807899 
9.155000 	 -29.374403 
9.160000 	 -28.844573 
9.165000 	 -28.194328 
9.170000 	 -27.544084 
9.175000 	 -26.966088 
9.180000 	 -26.195427 
9.185000 	 -25.424767 
9.190000 	 -24.702272 
9.195000 	 -24.003861 
9.200000 	 -23.112785 
9.205000 	 -22.390291 
9.210000 	 -21.475131 
9.215000 	 -20.584055 
9.220000 	 -19.789311 
9.225000 	 -18.898235 
9.230000 	 -17.669994 
9.235000 	 -16.803001 
9.240000 	 -16.008257 
9.245000 	 -14.828183 
9.250000 	 -13.744442 
9.255000 	 -12.757033 
9.260000 	 -11.673291 
9.265000 	 -10.661799 
9.270000 	 -9.602141 
9.275000 	 -8.494316 
9.280000 	 -7.506907 
9.285000 	 -6.423166 
9.290000 	 -5.194925 
9.295000 	 -4.327932 
9.300000 	 -3.099692 
9.305000 	 -1.991867 
9.310000 	 -0.859959 
9.315000 	 0.440530 
9.320000 	 1.355690 
9.325000 	 2.439431 
9.330000 	 3.571339 
9.335000 	 4.847746 
9.340000 	 5.738822 
9.345000 	 7.111562 
9.350000 	 8.002638 
9.355000 	 8.990047 
9.360000 	 10.266453 
9.365000 	 11.253862 
9.370000 	 12.289438 
9.375000 	 13.397262 
9.380000 	 14.312422 
9.385000 	 15.299831 
9.390000 	 16.239073 
9.395000 	 17.226482 
9.400000 	 17.876727 
9.405000 	 18.912302 
9.410000 	 19.923794 
9.415000 	 20.574039 
9.420000 	 21.416949 
9.425000 	 22.019028 
9.430000 	 22.886021 
9.435000 	 23.632599 
9.440000 	 24.475509 
9.445000 	 25.029421 
9.450000 	 25.583333 
9.455000 	 26.161329 
9.460000 	 26.787491 
9.465000 	 27.437736 
9.470000 	 27.919398 
9.475000 	 28.401061 
9.480000 	 29.195805 
9.485000 	 29.581135 
9.490000 	 29.773801 
9.495000 	 30.135048 
9.500000 	 30.351796 
9.505000 	 30.592627 
9.510000 	 31.050207 
9.515000 	 31.242872 
9.520000 	 31.411454 
9.525000 	 31.555953 
9.530000 	 31.604120 
9.535000 	 31.724535 
9.540000 	 31.748618 
9.545000 	 31.796785 
9.550000 	 31.652286 
9.555000 	 31.628203 
9.560000 	 31.531870 
9.565000 	 31.315122 
9.570000 	 31.194706 
9.575000 	 30.905708 
9.580000 	 30.544461 
9.585000 	 30.279547 
9.590000 	 30.110965 
9.595000 	 29.749717 
9.600000 	 29.532969 
9.605000 	 29.147639 
9.610000 	 28.473311 
9.615000 	 27.991648 
9.620000 	 27.558151 
9.625000 	 26.859740 
9.630000 	 26.257661 
9.635000 	 25.727832 
9.640000 	 25.125754 
9.645000 	 24.692257 
9.650000 	 24.042012 
9.655000 	 23.150936 
9.660000 	 22.428441 
9.665000 	 21.681864 
9.670000 	 21.079785 
9.675000 	 20.260958 
9.680000 	 19.586630 
9.685000 	 18.406556 
9.690000 	 17.611813 
9.695000 	 16.792986 
9.700000 	 16.022325 
9.705000 	 15.155332 
9.710000 	 14.216089 
9.715000 	 13.276847 
9.720000 	 12.217188 
9.725000 	 11.302029 
9.730000 	 10.338703 
9.735000 	 9.134546 
9.740000 	 8.147137 
9.745000 	 7.424642 
9.750000 	 6.100069 
9.755000 	 5.305326 
9.760000 	 4.125252 
9.765000 	 3.089676 
9.770000 	 2.246766 
9.775000 	 1.163025 
9.780000 	 0.151533 
9.785000 	 -1.052625 
9.790000 	 -2.040033 
9.795000 	 -3.123775 
9.800000 	 -4.231600 
9.805000 	 -5.050427 
9.810000 	 -6.158251 
9.815000 	 -7.145660 
9.820000 	 -8.108986 
9.825000 	 -8.927813 
9.830000 	 -10.083804 
9.835000 	 -10.830381 
9.840000 	 -11.914123 
9.845000 	 -12.781116 
9.850000 	 -13.696275 
9.855000 	 -14.491019 
9.860000 	 -15.526594 
9.865000 	 -16.321338 
9.870000 	 -17.019749 
9.875000 	 -17.790410 
9.880000 	 -18.777819 
9.885000 	 -19.548480 
9.890000 	 -20.078309 
9.895000 	 -20.776720 
9.900000 	 -21.499214 
9.905000 	 -22.173542 
9.910000 	 -22.799704 
9.915000 	 -23.449949 
9.920000 	 -23.907529 
9.925000 	 -24.413275 
9.930000 	 -24.894938 
9.935000 	 -25.448850 
9.940000 	 -25.906430 
9.945000 	 -26.339926 
9.950000 	 -26.677090 
9.955000 	 -27.062421 
9.960000 	 -27.279169 
9.965000 	 -27.688582 
9.970000 	 -27.881248 
9.975000 	 -28.073913 
9.980000 	 -28.314744 
9.985000 	 -28.603742 
9.990000 	 -28.796407 
9.995000 	 -28.844573 
10.000000 	 -28.940906 
10.005000 	 -28.989072 
10.010000 	 -28.989072 
10.015000 	 -28.892740 
10.020000 	 -28.892740 
10.025000 	 -28.796407 
10.030000 	 -28.579659 
10.035000 	 -28.386994 
10.040000 	 -28.170245 
10.045000 	 -28.001663 
10.050000 	 -27.736749 
10.055000 	 -27.399585 
10.060000 	 -27.134670 
10.065000 	 -26.893839 
10.070000 	 -26.484425 
10.075000 	 -26.099095 
10.080000 	 -25.617432 
10.085000 	 -25.232102 
10.090000 	 -24.678189 
10.095000 	 -24.172443 
10.100000 	 -23.763030 
10.105000 	 -23.185034 
10.110000 	 -22.607039 
10.115000 	 -22.077210 
10.120000 	 -21.306549 
10.125000 	 -20.584055 
10.130000 	 -20.006059 
10.135000 	 -19.524396 
10.140000 	 -18.633320 
10.145000 	 -17.742244 
10.150000 	 -17.067916 
10.155000 	 -16.345421 
10.160000 	 -15.647010 
10.165000 	 -14.683684 
10.170000 	 -13.840774 
10.175000 	 -13.166446 
10.180000 	 -12.130871 
10.185000 	 -11.336127 
10.190000 	 -10.420968 
10.195000 	 -9.481725 
10.200000 	 -8.470233 
10.205000 	 -7.795905 
10.210000 	 -6.760330 
10.215000 	 -5.821087 
10.220000 	 -4.857761 
10.225000 	 -4.159350 
10.230000 	 -3.051526 
10.235000 	 -2.064117 
10.240000 	 -1.124874 
10.245000 	 -0.209714 
10.250000 	 0.946276 
10.255000 	 1.644688 
10.260000 	 2.656180 
10.265000 	 3.571339 
10.270000 	 4.606914 
10.275000 	 5.497991 
10.280000 	 6.148236 
10.285000 	 7.472809 
10.290000 	 8.147137 
10.295000 	 8.990047 
10.300000 	 10.025622 
10.305000 	 10.892615 
10.310000 	 11.663276 
10.315000 	 12.626602 
10.320000 	 13.493595 
10.325000 	 14.216089 
10.330000 	 15.010833 
10.335000 	 15.685161 
10.340000 	 16.407655 
10.345000 	 17.322815 
10.350000 	 17.780395 
10.355000 	 18.430639 
10.360000 	 19.321716 
10.365000 	 20.068293 
10.370000 	 20.477707 
10.375000 	 21.079785 
10.380000 	 21.513282 
10.385000 	 21.970862 
10.390000 	 22.452525 
10.395000 	 23.006437 
10.400000 	 23.367684 
10.405000 	 23.993846 
10.410000 	 24.355093 
10.415000 	 24.788590 
10.420000 	 25.029421 
10.425000 	 25.222086 
10.430000 	 25.535167 
10.435000 	 25.775999 
10.440000 	 25.920497 
10.445000 	 26.040913 
10.450000 	 26.209495 
10.455000 	 26.474410 
10.460000 	 26.642992 
10.465000 	 26.594825 
10.470000 	 26.667075 
10.475000 	 26.667075 
10.480000 	 26.570742 
10.485000 	 26.498493 
10.490000 	 26.450327 
10.495000 	 26.185412 
10.500000 	 26.089079 
10.505000 	 25.944581 
10.510000 	 25.800082 
10.515000 	 25.559250 
10.520000 	 25.318419 
10.525000 	 25.053504 
10.530000 	 24.860839 
10.535000 	 24.475509 
10.540000 	 24.090178 
10.545000 	 23.584432 
10.550000 	 23.150936 
10.555000 	 22.693356 
10.560000 	 22.211693 
10.565000 	 21.754113 
10.570000 	 21.320617 
10.575000 	 20.718538 
10.580000 	 20.236875 
10.585000 	 19.707046 
10.590000 	 19.056801 
10.595000 	 18.237974 
10.600000 	 17.611813 
10.605000 	 17.130150 
10.610000 	 16.383572 
10.615000 	 15.685161 
10.620000 	 14.986750 
10.625000 	 14.312422 
10.630000 	 13.589927 
10.635000 	 12.867433 
10.640000 	 11.880024 
10.645000 	 11.109364 
10.650000 	 10.338703 
10.655000 	 9.375377 
10.660000 	 8.484301 
10.665000 	 7.906305 
10.670000 	 7.135645 
10.675000 	 6.003737 
10.680000 	 5.281243 
10.685000 	 4.317917 
10.690000 	 3.330508 
10.695000 	 2.583930 
10.700000 	 1.620605 
10.705000 	 0.946276 
10.710000 	 0.007034 
10.715000 	 -0.932209 
10.720000 	 -1.799202 
10.725000 	 -2.762528 
10.730000 	 -3.485022 
10.735000 	 -4.448348 
10.740000 	 -5.050427 
10.745000 	 -6.037835 
10.750000 	 -6.856662 
10.755000 	 -7.795905 
10.760000 	 -8.373900 
10.765000 	 -9.168644 
10.770000 	 -10.083804 
10.775000 	 -10.758132 
10.780000 	 -11.576959 
10.785000 	 -12.227204 
10.790000 	 -13.142363 
10.795000 	 -13.720359 
10.800000 	 -14.394687 
10.805000 	 -15.117181 
10.810000 	 -15.936008 
10.815000 	 -16.417671 
10.820000 	 -16.923417 
10.825000 	 -17.477329 
10.830000 	 -17.983075 
10.835000 	 -18.874152 
10.840000 	 -19.452147 
10.845000 	 -19.765228 
10.850000 	 -20.150558 
10.855000 	 -20.656304 
10.860000 	 -20.993468 
10.865000 	 -21.499214 
10.870000 	 -22.029043 
10.875000 	 -22.245792 
10.880000 	 -22.510706 
10.885000 	 -22.871954 
10.890000 	 -23.064619 
10.895000 	 -23.377700 
10.900000 	 -23.618531 
10.905000 	 -23.763030 
10.910000 	 -23.931612 
10.915000 	 -23.979778 
10.920000 	 -24.100194 
10.925000 	 -24.148360 
10.930000 	 -24.148360 
10.935000 	 -24.220610 
10.940000 	 -24.172443 
10.945000 	 -24.220610 
10.950000 	 -24.148360 
10.955000 	 -24.076111 
10.960000 	 -23.907529 
10.965000 	 -23.931612 
10.970000 	 -23.714864 
10.975000 	 -23.546282 
10.980000 	 -23.329533 
10.985000 	 -23.040536 
10.990000 	 -22.775621 
10.995000 	 -22.486623 
11.000000 	 -22.173542 
11.005000 	 -21.836378 
11.010000 	 -21.354715 
11.015000 	 -20.848969 
11.020000 	 -20.559972 
11.025000 	 -20.126475 
11.030000 	 -19.741145 
11.035000 	 -19.379898 
11.040000 	 -18.874152 
11.045000 	 -18.079408 
11.050000 	 -17.573662 
11.055000 	 -17.091999 
11.060000 	 -16.610336 
11.065000 	 -16.080507 
11.070000 	 -15.382096 
11.075000 	 -14.635518 
11.080000 	 -14.009356 
11.085000 	 -13.479527 
11.090000 	 -12.853365 
11.095000 	 -11.986372 
11.100000 	 -11.456543 
11.105000 	 -10.565467 
11.110000 	 -9.987471 
11.115000 	 -9.048229 
11.120000 	 -8.373900 
11.125000 	 -7.795905 
11.130000 	 -6.928912 
11.135000 	 -6.134168 
11.140000 	 -5.243092 
11.145000 	 -4.496514 
11.150000 	 -3.966685 
11.155000 	 -3.075609 
11.160000 	 -2.208615 
11.165000 	 -1.317539 
11.170000 	 -0.643211 
11.175000 	 0.344198 
11.180000 	 1.090775 
11.185000 	 1.716937 
11.190000 	 2.632097 
11.195000 	 3.258258 
11.200000 	 4.053002 
11.205000 	 5.064494 
11.210000 	 5.642490 
11.215000 	 6.268651 
11.220000 	 7.352393 
11.225000 	 7.954472 
11.230000 	 8.508384 
11.235000 	 9.303128 
11.240000 	 10.170121 
11.245000 	 10.796283 
11.250000 	 11.398361 
11.255000 	 12.048606 
11.260000 	 12.891516 
11.265000 	 13.445429 
11.270000 	 14.023424 
11.275000 	 14.529170 
11.280000 	 15.251664 
11.285000 	 15.661078 
11.290000 	 16.287240 
11.295000 	 16.768902 
11.300000 	 17.346898 
11.305000 	 17.684062 
11.310000 	 18.093475 
11.315000 	 18.526972 
11.320000 	 19.201300 
11.325000 	 19.562547 
11.330000 	 20.092376 
11.335000 	 20.212792 
11.340000 	 20.477707 
11.345000 	 20.742621 
11.350000 	 21.079785 
11.355000 	 21.272451 
11.360000 	 21.441033 
11.365000 	 21.609615 
11.370000 	 21.778197 
11.375000 	 21.850446 
11.380000 	 21.922695 
11.385000 	 22.043111 
11.390000 	 22.019028 
11.395000 	 22.091277 
11.400000 	 22.091277 
11.405000 	 21.898612 
11.410000 	 21.994945 
11.415000 	 21.994945 
11.420000 	 21.826363 
11.425000 	 21.778197 
11.430000 	 21.681864 
11.435000 	 21.513282 
11.440000 	 21.441033 
11.445000 	 21.224284 
11.450000 	 21.031619 
11.455000 	 20.646289 
11.460000 	 20.405457 
11.465000 	 20.285042 
11.470000 	 19.996044 
11.475000 	 19.658880 
11.480000 	 19.177217 
11.485000 	 18.599221 
11.490000 	 18.117559 
11.495000 	 17.684062 
11.500000 	 17.491397 
11.505000 	 16.985651 
11.510000 	 16.383572 
11.515000 	 15.998242 
11.520000 	 15.492496 
11.525000 	 14.914500 
11.530000 	 14.360588 
11.535000 	 13.854842 
11.540000 	 13.276847 
11.545000 	 12.722934 
11.550000 	 11.952274 
11.555000 	 11.398361 
11.560000 	 10.772199 
11.565000 	 10.218287 
11.570000 	 9.399460 
11.575000 	 8.556550 
11.580000 	 8.050804 
11.585000 	 7.545058 
11.590000 	 6.702148 
11.595000 	 5.859238 
11.600000 	 5.329409 
11.605000 	 4.558748 
11.610000 	 3.739921 
11.615000 	 3.089676 
11.620000 	 2.415348 
11.625000 	 1.548355 
11.630000 	 1.018526 
11.635000 	 0.344198 
11.640000 	 -0.595045 
11.645000 	 -1.269373 
11.650000 	 -1.919618 
11.655000 	 -2.882944 
11.660000 	 -3.436856 
11.665000 	 -4.231600 
11.670000 	 -4.809595 
11.675000 	 -5.411674 
11.680000 	 -6.254584 
11.685000 	 -6.856662 
11.690000 	 -7.579157 
11.695000 	 -8.205318 
11.700000 	 -8.686981 
11.705000 	 -9.289060 
11.710000 	 -10.083804 
11.715000 	 -10.565467 
11.720000 	 -11.191628 
11.725000 	 -11.721458 
11.730000 	 -12.299453 
11.735000 	 -12.925615 
11.740000 	 -13.407278 
11.745000 	 -13.864857 
11.750000 	 -14.322437 
11.755000 	 -14.852266 
11.760000 	 -15.430262 
11.765000 	 -15.911925 
11.770000 	 -16.321338 
11.775000 	 -16.658502 
11.780000 	 -16.923417 
11.785000 	 -17.236498 
11.790000 	 -17.573662 
11.795000 	 -17.838576 
11.800000 	 -18.151657 
11.805000 	 -18.609237 
11.810000 	 -18.970484 
11.815000 	 -19.235399 
11.820000 	 -19.379898 
11.825000 	 -19.572563 
11.830000 	 -19.572563 
11.835000 	 -19.692978 
11.840000 	 -19.813394 
11.845000 	 -19.837477 
11.850000 	 -19.813394 
11.855000 	 -19.909727 
11.860000 	 -19.909727 
11.865000 	 -19.933810 
11.870000 	 -19.909727 
11.875000 	 -19.885644 
11.880000 	 -19.741145 
11.885000 	 -19.741145 
11.890000 	 -19.668895 
11.895000 	 -19.548480 
11.900000 	 -19.379898 
11.905000 	 -19.307648 
11.910000 	 -19.090900 
11.915000 	 -18.850068 
11.920000 	 -18.440655 
11.925000 	 -18.007158 
11.930000 	 -17.790410 
11.935000 	 -17.573662 
11.940000 	 -17.212415 
11.945000 	 -16.899334 
11.950000 	 -16.658502 
11.955000 	 -16.345421 
11.960000 	 -15.936008 
11.965000 	 -15.454345 
11.970000 	 -14.996765 
11.975000 	 -14.442853 
11.980000 	 -13.913024 
11.985000 	 -13.624026 
11.990000 	 -13.118280 
11.995000 	 -12.612534 
12.000000 	 -12.058622 
12.005000 	 -11.528792 
12.010000 	 -10.854464 
12.015000 	 -10.324635 
12.020000 	 -9.842972 
12.025000 	 -9.168644 
12.030000 	 -8.566566 
12.035000 	 -8.133069 
12.040000 	 -7.506907 
12.045000 	 -6.832579 
12.050000 	 -6.278667 
12.055000 	 -5.459840 
12.060000 	 -4.905928 
12.065000 	 -4.352015 
12.070000 	 -3.894436 
12.075000 	 -3.051526 
12.080000 	 -2.521696 
12.085000 	 -1.823285 
12.090000 	 -1.221207 
12.095000 	 -0.570962 
12.100000 	 0.223782 
12.105000 	 0.970360 
12.110000 	 1.355690 
12.115000 	 2.294933 
12.120000 	 2.752512 
12.125000 	 3.354591 
12.130000 	 3.956670 
12.135000 	 4.847746 
12.140000 	 5.377575 
12.145000 	 5.811072 
12.150000 	 6.364984 
12.155000 	 7.256060 
12.160000 	 7.737723 
12.165000 	 8.195303 
12.170000 	 8.676966 
12.175000 	 9.303128 
12.180000 	 9.905206 
12.185000 	 10.555451 
12.190000 	 11.013031 
12.195000 	 11.422444 
12.200000 	 11.904107 
12.205000 	 12.458020 
12.210000 	 12.939682 
12.215000 	 13.373179 
12.220000 	 13.806676 
12.225000 	 14.216089 
12.230000 	 14.529170 
12.235000 	 14.914500 
12.240000 	 15.323914 
12.245000 	 15.564745 
12.250000 	 15.925992 
12.255000 	 16.311323 
12.260000 	 16.407655 
12.265000 	 16.576237 
12.270000 	 16.961568 
12.275000 	 17.250565 
12.280000 	 17.491397 
12.285000 	 17.539563 
12.290000 	 17.635896 
12.295000 	 17.732228 
12.300000 	 17.756311 
12.305000 	 17.852644 
12.310000 	 17.876727 
12.315000 	 17.900810 
12.320000 	 17.973060 
12.325000 	 17.900810 
12.330000 	 17.852644 
12.335000 	 17.828561 
12.340000 	 17.780395 
12.345000 	 17.708145 
12.350000 	 17.659979 
12.355000 	 17.611813 
12.360000 	 17.491397 
12.365000 	 17.419147 
12.370000 	 17.322815 
12.375000 	 17.081983 
12.380000 	 16.672570 
12.385000 	 16.455822 
12.390000 	 16.335406 
12.395000 	 16.046408 
12.400000 	 15.709244 
12.405000 	 15.468413 
12.410000 	 15.179415 
12.415000 	 14.794085 
12.420000 	 14.408754 
12.425000 	 14.167923 
12.430000 	 13.806676 
12.435000 	 13.445429 
12.440000 	 12.939682 
12.445000 	 12.602518 
12.450000 	 11.952274 
12.455000 	 11.446528 
12.460000 	 11.061197 
12.465000 	 10.651784 
12.470000 	 10.242370 
12.475000 	 9.471710 
12.480000 	 8.965964 
12.485000 	 8.363885 
12.490000 	 8.050804 
12.495000 	 7.593224 
12.500000 	 7.111562 
12.505000 	 6.172319 
12.510000 	 5.714739 
12.515000 	 5.305326 
12.520000 	 4.823663 
12.525000 	 4.028919 
12.530000 	 3.450924 
12.535000 	 2.993344 
12.540000 	 2.487598 
12.545000 	 1.668771 
12.550000 	 1.235274 
12.555000 	 0.753611 
12.560000 	 0.127450 
12.565000 	 -0.667294 
12.570000 	 -1.173040 
12.575000 	 -1.799202 
12.580000 	 -2.377197 
12.585000 	 -2.931110 
12.590000 	 -3.460939 
12.595000 	 -4.207516 
12.600000 	 -4.568764 
12.605000 	 -5.026343 
12.610000 	 -5.556173 
12.615000 	 -6.230501 
12.620000 	 -6.663997 
12.625000 	 -7.241993 
12.630000 	 -7.795905 
12.635000 	 -8.277568 
12.640000 	 -8.614732 
12.645000 	 -9.120478 
12.650000 	 -9.698473 
12.655000 	 -10.180136 
12.660000 	 -10.445051 
12.665000 	 -10.782215 
12.670000 	 -11.360210 
12.675000 	 -11.673291 
12.680000 	 -12.010455 
12.685000 	 -12.443952 
12.690000 	 -12.805199 
12.695000 	 -13.190529 
12.700000 	 -13.455444 
12.705000 	 -13.648109 
12.710000 	 -13.840774 
12.715000 	 -14.177938 
12.720000 	 -14.418770 
12.725000 	 -14.707767 
12.730000 	 -14.948599 
12.735000 	 -15.165347 
12.740000 	 -15.454345 
12.745000 	 -15.574761 
12.750000 	 -15.719260 
12.755000 	 -15.887842 
12.760000 	 -15.960091 
12.765000 	 -15.960091 
12.770000 	 -16.080507 
12.775000 	 -16.176839 
12.780000 	 -16.152756 
12.785000 	 -16.128673 
12.790000 	 -16.152756 
12.795000 	 -16.032340 
12.800000 	 -15.984174 
12.805000 	 -16.008257 
12.810000 	 -15.839675 
12.815000 	 -15.767426 
12.820000 	 -15.622927 
12.825000 	 -15.478428 
12.830000 	 -15.309846 
12.835000 	 -15.069015 
12.840000 	 -14.828183 
12.845000 	 -14.563269 
12.850000 	 -14.322437 
12.855000 	 -14.057523 
12.860000 	 -13.816691 
12.865000 	 -13.599943 
12.870000 	 -13.455444 
12.875000 	 -13.190529 
12.880000 	 -12.805199 
12.885000 	 -12.564368 
12.890000 	 -12.106788 
12.895000 	 -11.793707 
12.900000 	 -11.480626 
12.905000 	 -10.974880 
12.910000 	 -10.565467 
12.915000 	 -10.276469 
12.920000 	 -9.867055 
12.925000 	 -9.361309 
12.930000 	 -8.903730 
12.935000 	 -8.518399 
12.940000 	 -8.157152 
12.945000 	 -7.723656 
12.950000 	 -7.217910 
12.955000 	 -6.736247 
12.960000 	 -6.230501 
12.965000 	 -5.652505 
12.970000 	 -5.146759 
12.975000 	 -4.665096 
12.980000 	 -4.327932 
12.985000 	 -3.918519 
12.990000 	 -3.268274 
12.995000 	 -2.907027 
13.000000 	 -2.304948 
13.005000 	 -1.726953 
13.010000 	 -1.197123 
13.015000 	 -0.763627 
13.020000 	 -0.257881 
13.025000 	 0.464614 
13.030000 	 0.922193 
13.035000 	 1.283441 
13.040000 	 1.813270 
13.045000 	 2.391265 
13.050000 	 2.945177 
13.055000 	 3.330508 
13.060000 	 3.812171 
13.065000 	 4.293834 
13.070000 	 5.016328 
13.075000 	 5.329409 
13.080000 	 5.642490 
13.085000 	 6.027820 
13.090000 	 6.726231 
13.095000 	 7.352393 
13.100000 	 7.737723 
13.105000 	 7.978555 
13.110000 	 8.291636 
13.115000 	 8.701049 
13.120000 	 9.110463 
13.125000 	 9.543959 
13.130000 	 10.025622 
13.135000 	 10.338703 
13.140000 	 10.675867 
13.145000 	 10.988948 
13.150000 	 11.277946 
13.155000 	 11.542860 
13.160000 	 11.831858 
13.165000 	 12.096772 
13.170000 	 12.385770 
13.175000 	 12.747017 
13.180000 	 12.963766 
13.185000 	 13.084181 
13.190000 	 13.276847 
13.195000 	 13.493595 
13.200000 	 13.638094 
13.205000 	 13.782593 
13.210000 	 13.830759 
13.215000 	 13.903008 
13.220000 	 14.071590 
13.225000 	 14.119757 
13.230000 	 14.264255 
13.235000 	 14.288339 
13.240000 	 14.288339 
13.245000 	 14.312422 
13.250000 	 14.264255 
13.255000 	 14.192006 
13.260000 	 14.216089 
13.265000 	 14.167923 
13.270000 	 14.023424 
13.275000 	 13.951175 
13.280000 	 13.878925 
13.285000 	 13.806676 
13.290000 	 13.638094 
13.295000 	 13.517678 
13.300000 	 13.349096 
13.305000 	 13.156431 
13.310000 	 12.963766 
13.315000 	 12.722934 
13.320000 	 12.433936 
13.325000 	 12.193105 
13.330000 	 11.855941 
13.335000 	 11.687359 
13.340000 	 11.398361 
13.345000 	 11.181613 
13.350000 	 10.916698 
13.355000 	 10.627701 
13.360000 	 10.242370 
13.365000 	 9.808874 
13.370000 	 9.399460 
13.375000 	 9.134546 
13.380000 	 8.749215 
13.385000 	 8.315719 
13.390000 	 8.026721 
13.395000 	 7.761806 
13.400000 	 7.496892 
13.405000 	 6.991146 
13.410000 	 6.292735 
13.415000 	 5.883321 
13.420000 	 5.522074 
13.425000 	 5.281243 
13.430000 	 4.968162 
13.435000 	 4.197501 
13.440000 	 3.764004 
13.445000 	 3.402757 
13.450000 	 3.017427 
13.455000 	 2.487598 
13.460000 	 2.222683 
13.465000 	 1.548355 
13.470000 	 1.163025 
13.475000 	 0.874027 
13.480000 	 0.392364 
13.485000 	 -0.281964 
13.490000 	 -0.763627 
13.495000 	 -1.197123 
13.500000 	 -1.510204 
13.505000 	 -2.040033 
13.510000 	 -2.545779 
13.515000 	 -2.955193 
13.520000 	 -3.316440 
13.525000 	 -3.894436 
13.530000 	 -4.231600 
13.535000 	 -4.568764 
13.540000 	 -4.930011 
13.545000 	 -5.267175 
13.550000 	 -5.724755 
13.555000 	 -6.158251 
13.560000 	 -6.471332 
13.565000 	 -6.904829 
13.570000 	 -7.266076 
13.575000 	 -7.771822 
13.580000 	 -8.060820 
13.585000 	 -8.349817 
13.590000 	 -8.518399 
13.595000 	 -8.807397 
13.600000 	 -9.096395 
13.605000 	 -9.361309 
13.610000 	 -9.842972 
13.615000 	 -10.131970 
13.620000 	 -10.300552 
13.625000 	 -10.445051 
13.630000 	 -10.613633 
13.635000 	 -10.782215 
13.640000 	 -10.974880 
13.645000 	 -11.239795 
13.650000 	 -11.456543 
13.655000 	 -11.576959 
13.660000 	 -11.601042 
13.665000 	 -11.721458 
13.670000 	 -11.865956 
13.675000 	 -11.938206 
13.680000 	 -12.034538 
13.685000 	 -12.058622 
13.690000 	 -12.106788 
13.695000 	 -12.106788 
13.700000 	 -12.130871 
13.705000 	 -12.154954 
13.710000 	 -12.203120 
13.715000 	 -12.106788 
13.720000 	 -12.058622 
13.725000 	 -12.058622 
13.730000 	 -11.986372 
13.735000 	 -11.986372 
13.740000 	 -11.865956 
13.745000 	 -11.793707 
13.750000 	 -11.625125 
13.755000 	 -11.552876 
13.760000 	 -11.480626 
13.765000 	 -11.239795 
13.770000 	 -11.023046 
13.775000 	 -10.782215 
13.780000 	 -10.637716 
13.785000 	 -10.541383 
13.790000 	 -10.252386 
13.795000 	 -10.059721 
13.800000 	 -9.867055 
13.805000 	 -9.553975 
13.810000 	 -9.264977 
13.815000 	 -8.927813 
13.820000 	 -8.614732 
13.825000 	 -8.470233 
13.830000 	 -8.229402 
13.835000 	 -7.964487 
13.840000 	 -7.651406 
13.845000 	 -7.338325 
13.850000 	 -7.001161 
13.855000 	 -6.591748 
13.860000 	 -6.399083 
13.865000 	 -6.013752 
13.870000 	 -5.483923 
13.875000 	 -5.098593 
13.880000 	 -4.833678 
13.885000 	 -4.448348 
13.890000 	 -4.303849 
13.895000 	 -3.894436 
13.900000 	 -3.364606 
13.905000 	 -3.123775 
13.910000 	 -2.690278 
13.915000 	 -2.256782 
13.920000 	 -1.823285 
13.925000 	 -1.437955 
13.930000 	 -1.028541 
13.935000 	 -0.739544 
13.940000 	 -0.402380 
13.945000 	 0.199699 
13.950000 	 0.657279 
13.955000 	 0.994443 
13.960000 	 1.211191 
13.965000 	 1.548355 
13.970000 	 2.030018 
13.975000 	 2.439431 
13.980000 	 2.752512 
13.985000 	 3.113760 
13.990000 	 3.475007 
13.995000 	 3.739921 
14.000000 	 4.053002 
14.005000 	 4.582831 
14.010000 	 4.919995 
14.015000 	 5.377575 
14.020000 	 5.497991 
14.025000 	 5.762905 
14.030000 	 6.003737 
14.035000 	 6.364984 
14.040000 	 6.918896 
14.045000 	 7.304227 
14.050000 	 7.569141 
14.055000 	 7.785890 
14.060000 	 7.930388 
14.065000 	 8.123054 
14.070000 	 8.243469 
14.075000 	 8.436134 
14.080000 	 8.701049 
14.085000 	 8.965964 
14.090000 	 9.158629 
14.095000 	 9.399460 
14.100000 	 9.471710 
14.105000 	 9.592125 
14.110000 	 9.760707 
14.115000 	 10.001539 
14.120000 	 10.073788 
14.125000 	 10.266453 
14.130000 	 10.290537 
14.135000 	 10.459119 
14.140000 	 10.579534 
14.145000 	 10.555451 
14.150000 	 10.675867 
14.155000 	 10.651784 
14.160000 	 10.675867 
14.165000 	 10.627701 
14.170000 	 10.627701 
14.175000 	 10.603617 
14.180000 	 10.627701 
14.185000 	 10.483202 
14.190000 	 10.531368 
14.195000 	 10.314620 
14.200000 	 10.314620 
14.205000 	 10.194204 
14.210000 	 10.121955 
14.215000 	 10.001539 
14.220000 	 9.808874 
14.225000 	 9.616209 
14.230000 	 9.471710 
14.235000 	 9.327211 
14.240000 	 9.182712 
14.245000 	 8.965964 
14.250000 	 8.676966 
14.255000 	 8.484301 
14.260000 	 8.315719 
14.265000 	 8.171220 
14.270000 	 7.954472 
14.275000 	 7.906305 
14.280000 	 7.689557 
14.285000 	 7.448726 
14.290000 	 7.280144 
14.295000 	 6.942979 
14.300000 	 6.485400 
14.305000 	 6.075986 
14.310000 	 5.811072 
14.315000 	 5.546157 
14.320000 	 5.449825 
14.325000 	 5.257159 
14.330000 	 4.968162 
14.335000 	 4.606914 
14.340000 	 4.149335 
14.345000 	 3.860337 
14.350000 	 3.547256 
14.355000 	 3.210092 
14.360000 	 2.945177 
14.365000 	 2.656180 
14.370000 	 2.367182 
14.375000 	 2.005935 
14.380000 	 1.476106 
14.385000 	 1.283441 
14.390000 	 1.066692 
14.395000 	 0.825861 
14.400000 	 0.488697 
14.405000 	 -0.017049 
14.410000 	 -0.450546 
14.415000 	 -0.763627 
14.420000 	 -1.052625 
14.425000 	 -1.317539 
14.430000 	 -1.726953 
14.435000 	 -1.991867 
14.440000 	 -2.304948 
14.445000 	 -2.714361 
14.450000 	 -2.979276 
14.455000 	 -3.147858 
14.460000 	 -3.509105 
14.465000 	 -3.990768 
14.470000 	 -4.231600 
14.475000 	 -4.376098 
14.480000 	 -4.568764 
14.485000 	 -4.809595 
14.490000 	 -5.002260 
14.495000 	 -5.243092 
14.500000 	 -5.508006 
14.505000 	 -5.893337 
14.510000 	 -6.158251 
14.515000 	 -6.350916 
14.520000 	 -6.519498 
14.525000 	 -6.784413 
14.530000 	 -6.977078 
14.535000 	 -7.217910 
14.540000 	 -7.458741 
14.545000 	 -7.627323 
14.550000 	 -7.747739 
14.555000 	 -7.868154 
14.560000 	 -8.036736 
14.565000 	 -8.133069 
14.570000 	 -8.229402 
14.575000 	 -8.277568 
14.580000 	 -8.446150 
14.585000 	 -8.446150 
14.590000 	 -8.494316 
14.595000 	 -8.518399 
14.600000 	 -8.566566 
14.605000 	 -8.614732 
14.610000 	 -8.566566 
14.615000 	 -8.662898 
14.620000 	 -8.614732 
14.625000 	 -8.662898 
14.630000 	 -8.614732 
14.635000 	 -8.590649 
14.640000 	 -8.566566 
14.645000 	 -8.590649 
14.650000 	 -8.542482 
14.655000 	 -8.542482 
14.660000 	 -8.446150 
14.665000 	 -8.373900 
14.670000 	 -8.349817 
14.675000 	 -8.253485 
14.680000 	 -8.205318 
14.685000 	 -8.181235 
14.690000 	 -8.060820 
14.695000 	 -7.916321 
14.700000 	 -7.699572 
14.705000 	 -7.627323 
14.710000 	 -7.410575 
14.715000 	 -7.241993 
14.720000 	 -6.977078 
14.725000 	 -6.808496 
14.730000 	 -6.663997 
14.735000 	 -6.519498 
14.740000 	 -6.302750 
14.745000 	 -6.158251 
14.750000 	 -5.893337 
14.755000 	 -5.556173 
14.760000 	 -5.387591 
14.765000 	 -5.074510 
14.770000 	 -4.930011 
14.775000 	 -4.641013 
14.780000 	 -4.448348 
14.785000 	 -4.327932 
14.790000 	 -4.159350 
14.795000 	 -3.990768 
14.800000 	 -3.557272 
14.805000 	 -3.340523 
14.810000 	 -3.099692 
14.815000 	 -2.931110 
14.820000 	 -2.642112 
14.825000 	 -2.184532 
14.830000 	 -1.967784 
14.835000 	 -1.726953 
14.840000 	 -1.437955 
14.845000 	 -1.197123 
14.850000 	 -0.884043 
14.855000 	 -0.691377 
14.860000 	 -0.450546 
14.865000 	 -0.017049 
14.870000 	 0.296032 
14.875000 	 0.657279 
14.880000 	 0.922193 
14.885000 	 1.114858 
14.890000 	 1.211191 
14.895000 	 1.403856 
14.900000 	 1.716937 
14.905000 	 2.126351 
14.910000 	 2.367182 
14.915000 	 2.583930 
14.920000 	 2.824762 
14.925000 	 3.017427 
14.930000 	 3.258258 
14.935000 	 3.426840 
14.940000 	 3.643589 
14.945000 	 3.788088 
14.950000 	 4.101168 
14.955000 	 4.342000 
14.960000 	 4.655081 
14.965000 	 4.919995 
14.970000 	 5.064494 
14.975000 	 5.281243 
14.980000 	 5.401658 
14.985000 	 5.473908 
14.990000 	 5.546157 
14.995000 	 5.690656 
15.000000 	 5.883321 
15.005000 	 6.003737 
15.010000 	 6.100069 
15.015000 	 6.148236 
15.020000 	 6.316818 
15.025000 	 6.485400 
15.030000 	 6.726231 
15.035000 	 6.846647 
15.040000 	 6.991146 
15.045000 	 7.087478 
15.050000 	 7.231977 
15.055000 	 7.304227 
15.060000 	 7.328310 
15.065000 	 7.400559 
15.070000 	 7.376476 
15.075000 	 7.400559 
15.080000 	 7.376476 
15.085000 	 7.424642 
15.090000 	 7.352393 
15.095000 	 7.328310 
15.100000 	 7.328310 
15.105000 	 7.280144 
15.110000 	 7.256060 
15.115000 	 7.159728 
15.120000 	 7.039312 
15.125000 	 6.991146 
15.130000 	 6.822564 
15.135000 	 6.774397 
15.140000 	 6.678065 
15.145000 	 6.461317 
15.150000 	 6.340901 
15.155000 	 6.244568 
15.160000 	 6.051903 
15.165000 	 6.051903 
15.170000 	 5.931487 
15.175000 	 5.786989 
15.180000 	 5.666573 
15.185000 	 5.594323 
15.190000 	 5.497991 
15.195000 	 5.473908 
15.200000 	 5.353492 
15.205000 	 5.160827 
15.210000 	 4.968162 
15.215000 	 4.847746 
15.220000 	 4.486499 
15.225000 	 4.173418 
15.230000 	 4.028919 
15.235000 	 3.860337 
15.240000 	 3.619506 
15.245000 	 3.475007 
15.250000 	 3.234175 
15.255000 	 3.161926 
15.260000 	 2.921094 
15.265000 	 2.680263 
15.270000 	 2.535764 
15.275000 	 2.367182 
15.280000 	 2.246766 
15.285000 	 1.789187 
15.290000 	 1.596521 
15.295000 	 1.427939 
15.300000 	 1.211191 
15.305000 	 1.090775 
15.310000 	 0.922193 
15.315000 	 0.777694 
15.320000 	 0.512780 
15.325000 	 0.271948 
15.330000 	 -0.041132 
15.335000 	 -0.306047 
15.340000 	 -0.522795 
15.345000 	 -0.715460 
15.350000 	 -0.956292 
15.355000 	 -1.221207 
15.360000 	 -1.293456 
15.365000 	 -1.486121 
15.370000 	 -1.751036 
15.375000 	 -1.991867 
15.380000 	 -2.160449 
15.385000 	 -2.425364 
15.390000 	 -2.714361 
15.395000 	 -2.834777 
15.400000 	 -3.027442 
15.405000 	 -3.171941 
15.410000 	 -3.268274 
15.415000 	 -3.340523 
15.420000 	 -3.533188 
15.425000 	 -3.846269 
15.430000 	 -4.014851 
15.435000 	 -4.159350 
15.440000 	 -4.279766 
15.445000 	 -4.352015 
15.450000 	 -4.303849 
15.455000 	 -4.496514 
15.460000 	 -4.592847 
15.465000 	 -4.616930 
15.470000 	 -4.737346 
15.475000 	 -4.833678 
15.480000 	 -4.857761 
15.485000 	 -5.050427 
15.490000 	 -5.002260 
15.495000 	 -5.074510 
15.500000 	 -5.146759 
15.505000 	 -5.243092 
15.510000 	 -5.315341 
15.515000 	 -5.363507 
15.520000 	 -5.459840 
15.525000 	 -5.435757 
15.530000 	 -5.387591 
15.535000 	 -5.435757 
15.540000 	 -5.508006 
15.545000 	 -5.483923 
15.550000 	 -5.459840 
15.555000 	 -5.459840 
15.560000 	 -5.459840 
15.565000 	 -5.387591 
15.570000 	 -5.315341 
15.575000 	 -5.267175 
15.580000 	 -5.243092 
15.585000 	 -5.194925 
15.590000 	 -5.074510 
15.595000 	 -5.074510 
15.600000 	 -5.002260 
15.605000 	 -4.930011 
15.610000 	 -4.978177 
15.615000 	 -4.857761 
15.620000 	 -4.761429 
15.625000 	 -4.641013 
15.630000 	 -4.544680 
15.635000 	 -4.496514 
15.640000 	 -4.424265 
15.645000 	 -4.352015 
15.650000 	 -4.303849 
15.655000 	 -4.303849 
15.660000 	 -4.159350 
15.665000 	 -4.014851 
15.670000 	 -3.918519 
15.675000 	 -3.677687 
15.680000 	 -3.509105 
15.685000 	 -3.412773 
15.690000 	 -3.171941 
15.695000 	 -3.147858 
15.700000 	 -3.027442 
15.705000 	 -2.907027 
15.710000 	 -2.762528 
15.715000 	 -2.569863 
15.720000 	 -2.425364 
15.725000 	 -2.232699 
15.730000 	 -1.991867 
15.735000 	 -1.919618 
15.740000 	 -1.775119 
15.745000 	 -1.510204 
15.750000 	 -1.317539 
15.755000 	 -1.221207 
15.760000 	 -1.052625 
15.765000 	 -0.908126 
15.770000 	 -0.715460 
15.775000 	 -0.691377 
15.780000 	 -0.474629 
15.785000 	 -0.330130 
15.790000 	 -0.089299 
15.795000 	 0.103366 
15.800000 	 0.271948 
15.805000 	 0.512780 
15.810000 	 0.609112 
15.815000 	 0.825861 
15.820000 	 0.946276 
15.825000 	 1.042609 
15.830000 	 1.211191 
15.835000 	 1.259357 
15.840000 	 1.355690 
15.845000 	 1.548355 
15.850000 	 1.620605 
15.855000 	 1.741020 
15.860000 	 2.054101 
15.865000 	 2.246766 
15.870000 	 2.343099 
15.875000 	 2.391265 
15.880000 	 2.463515 
15.885000 	 2.632097 
15.890000 	 2.704346 
15.895000 	 2.848845 
15.900000 	 2.945177 
15.905000 	 2.993344 
15.910000 	 3.089676 
15.915000 	 3.089676 
15.920000 	 3.186009 
15.925000 	 3.258258 
15.930000 	 3.354591 
15.935000 	 3.402757 
15.940000 	 3.499090 
15.945000 	 3.547256 
15.950000 	 3.667672 
15.955000 	 3.715838 
15.960000 	 3.739921 
15.965000 	 3.788088 
15.970000 	 3.788088 
15.975000 	 3.956670 
15.980000 	 3.884420 
15.985000 	 3.956670 
15.990000 	 3.956670 
15.995000 	 3.932586 
16.000000 	 4.004836 
16.005000 	 3.956670 
16.010000 	 3.980753 
16.015000 	 3.884420 
16.020000 	 3.908503 
16.025000 	 3.860337 
16.030000 	 3.884420 
16.035000 	 3.812171 
16.040000 	 3.764004 
16.045000 	 3.739921 
16.050000 	 3.667672 
16.055000 	 3.643589 
16.060000 	 3.595422 
16.065000 	 3.571339 
16.070000 	 3.499090 
16.075000 	 3.450924 
16.080000 	 3.426840 
16.085000 	 3.354591 
16.090000 	 3.282342 
16.095000 	 3.210092 
16.100000 	 3.113760 
16.105000 	 3.161926 
16.110000 	 3.113760 
16.115000 	 3.017427 
16.120000 	 2.969261 
16.125000 	 2.848845 
16.130000 	 2.776595 
16.135000 	 2.704346 
16.140000 	 2.632097 
16.145000 	 2.535764 
16.150000 	 2.439431 
16.155000 	 2.463515 
16.160000 	 2.343099 
16.165000 	 2.246766 
16.170000 	 2.078184 
16.175000 	 1.885519 
16.180000 	 1.692854 
16.185000 	 1.644688 
16.190000 	 1.476106 
16.195000 	 1.355690 
16.200000 	 1.235274 
16.205000 	 1.211191 
16.210000 	 1.114858 
16.215000 	 1.066692 
16.220000 	 0.922193 
16.225000 	 0.922193 
16.230000 	 0.849944 
16.235000 	 0.681362 
16.240000 	 0.585029 
16.245000 	 0.536863 
16.250000 	 0.392364 
16.255000 	 0.247865 
16.260000 	 0.055200 
16.265000 	 -0.041132 
16.270000 	 -0.161548 
16.275000 	 -0.330130 
16.280000 	 -0.354213 
16.285000 	 -0.546878 
16.290000 	 -0.667294 
16.295000 	 -0.763627 
16.300000 	 -0.787710 
16.305000 	 -0.980375 
16.310000 	 -1.028541 
16.315000 	 -1.148957 
16.320000 	 -1.197123 
16.325000 	 -1.197123 
16.330000 	 -1.317539 
16.335000 	 -1.389789 
16.340000 	 -1.486121 
16.345000 	 -1.630620 
16.350000 	 -1.775119 
16.355000 	 -1.799202 
16.360000 	 -1.919618 
16.365000 	 -1.919618 
16.370000 	 -1.967784 
16.375000 	 -2.064117 
16.380000 	 -2.088200 
16.385000 	 -2.088200 
16.390000 	 -2.184532 
16.395000 	 -2.256782 
16.400000 	 -2.280865 
16.405000 	 -2.304948 
16.410000 	 -2.449447 
16.415000 	 -2.425364 
16.420000 	 -2.545779 
16.425000 	 -2.473530 
16.430000 	 -2.618029 
16.435000 	 -2.521696 
16.440000 	 -2.618029 
16.445000 	 -2.593946 
16.450000 	 -2.690278 
16.455000 	 -2.666195 
16.460000 	 -2.642112 
16.465000 	 -2.642112 
16.470000 	 -2.642112 
16.475000 	 -2.618029 
16.480000 	 -2.593946 
16.485000 	 -2.593946 
16.490000 	 -2.569863 
16.495000 	 -2.521696 
16.500000 	 -2.545779 
16.505000 	 -2.497613 
16.510000 	 -2.473530 
16.515000 	 -2.401281 
16.520000 	 -2.401281 
16.525000 	 -2.304948 
16.530000 	 -2.329031 
16.535000 	 -2.232699 
16.540000 	 -2.160449 
16.545000 	 -2.160449 
16.550000 	 -2.088200 
16.555000 	 -1.991867 
16.560000 	 -2.015950 
16.565000 	 -2.040033 
16.570000 	 -1.991867 
16.575000 	 -1.991867 
16.580000 	 -1.967784 
16.585000 	 -1.871451 
16.590000 	 -1.799202 
16.595000 	 -1.799202 
16.600000 	 -1.823285 
16.605000 	 -1.654703 
16.610000 	 -1.630620 
16.615000 	 -1.510204 
16.620000 	 -1.510204 
16.625000 	 -1.413872 
16.630000 	 -1.341622 
16.635000 	 -1.293456 
16.640000 	 -1.293456 
16.645000 	 -1.197123 
16.650000 	 -1.197123 
16.655000 	 -1.124874 
16.660000 	 -1.052625 
16.665000 	 -0.956292 
16.670000 	 -0.932209 
16.675000 	 -0.859959 
16.680000 	 -0.859959 
16.685000 	 -0.763627 
16.690000 	 -0.691377 
16.695000 	 -0.691377 
16.700000 	 -0.691377 
16.705000 	 -0.570962 
16.710000 	 -0.474629 
16.715000 	 -0.426463 
16.720000 	 -0.522795 
16.725000 	 -0.426463 
16.730000 	 -0.354213 
16.735000 	 -0.209714 
16.740000 	 -0.113382 
16.745000 	 -0.017049 
16.750000 	 0.055200 
16.755000 	 0.127450 
16.760000 	 0.151533 
16.765000 	 0.223782 
16.770000 	 0.271948 
16.775000 	 0.320115 
16.780000 	 0.368281 
16.785000 	 0.440530 
16.790000 	 0.464614 
16.795000 	 0.560946 
16.800000 	 0.609112 
16.805000 	 0.657279 
16.810000 	 0.657279 
16.815000 	 0.705445 
16.820000 	 0.849944 
16.825000 	 0.874027 
16.830000 	 0.849944 
16.835000 	 0.849944 
16.840000 	 0.898110 
16.845000 	 0.946276 
16.850000 	 0.922193 
16.855000 	 0.994443 
16.860000 	 0.994443 
16.865000 	 0.946276 
16.870000 	 1.018526 
16.875000 	 0.994443 
16.880000 	 0.970360 
16.885000 	 1.018526 
16.890000 	 1.018526 
16.895000 	 0.994443 
16.900000 	 1.018526 
16.905000 	 1.114858 
16.910000 	 1.018526 
16.915000 	 1.042609 
16.920000 	 1.018526 
16.925000 	 1.018526 
16.930000 	 1.042609 
16.935000 	 1.018526 
16.940000 	 1.042609 
16.945000 	 1.018526 
16.950000 	 1.018526 
16.955000 	 1.042609 
16.960000 	 1.042609 
16.965000 	 1.066692 
16.970000 	 1.066692 
16.975000 	 0.994443 
16.980000 	 1.018526 
16.985000 	 1.042609 
16.990000 	 1.018526 
16.995000 	 1.018526 
17.000000 	 0.946276 
17.005000 	 0.970360 
17.010000 	 0.922193 
17.015000 	 0.922193 
17.020000 	 0.874027 
17.025000 	 0.922193 
17.030000 	 0.970360 
17.035000 	 0.922193 
17.040000 	 0.898110 
17.045000 	 0.922193 
17.050000 	 0.898110 
17.055000 	 0.874027 
17.060000 	 0.898110 
17.065000 	 0.849944 
17.070000 	 0.946276 
17.075000 	 0.898110 
17.080000 	 0.922193 
17.085000 	 0.898110 
17.090000 	 0.898110 
17.095000 	 0.898110 
17.100000 	 0.849944 
17.105000 	 0.898110 
17.110000 	 0.874027 
17.115000 	 0.874027 
17.120000 	 0.849944 
17.125000 	 0.898110 
17.130000 	 0.874027 
17.135000 	 0.849944 
17.140000 	 0.849944 
17.145000 	 0.825861 
17.150000 	 0.849944 
17.155000 	 0.753611 
17.160000 	 0.777694 
17.165000 	 0.777694 
17.170000 	 0.801778 
17.175000 	 0.729528 
17.180000 	 0.705445 
17.185000 	 0.801778 
17.190000 	 0.729528 
17.195000 	 0.705445 
17.200000 	 0.705445 
17.205000 	 0.633196 
17.210000 	 0.681362 
17.215000 	 0.705445 
17.220000 	 0.705445 
17.225000 	 0.729528 
17.230000 	 0.729528 
17.235000 	 0.681362 
17.240000 	 0.657279 
17.245000 	 0.705445 
17.250000 	 0.705445 
17.255000 	 0.705445 
17.260000 	 0.633196 
17.265000 	 0.681362 
17.270000 	 0.705445 
17.275000 	 0.609112 
17.280000 	 0.681362 
17.285000 	 0.681362 
17.290000 	 0.657279 
17.295000 	 0.585029 
17.300000 	 0.633196 
17.305000 	 0.560946 
17.310000 	 0.609112 
17.315000 	 0.609112 
17.320000 	 0.609112 
17.325000 	 0.657279 
17.330000 	 0.560946 
17.335000 	 0.536863 
17.340000 	 0.609112 
17.345000 	 0.633196 
17.350000 	 0.633196 
17.355000 	 0.609112 
17.360000 	 0.609112 
17.365000 	 0.633196 
17.370000 	 0.633196 
17.375000 	 0.633196 
17.380000 	 0.633196 
17.385000 	 0.633196 
17.390000 	 0.657279 
17.395000 	 0.609112 
17.400000 	 0.560946 
17.405000 	 0.585029 
17.410000 	 0.609112 
17.415000 	 0.560946 
17.420000 	 0.609112 
17.425000 	 0.633196 
17.430000 	 0.657279 
17.435000 	 0.585029 
17.440000 	 0.633196 
17.445000 	 0.585029 
17.450000 	 0.633196 
17.455000 	 0.585029 
17.460000 	 0.585029 
17.465000 	 0.609112 
17.470000 	 0.633196 
17.475000 	 0.609112 
17.480000 	 0.633196 
17.485000 	 0.609112 
17.490000 	 0.560946 
17.495000 	 0.609112 
17.500000 	 0.609112 
17.505000 	 0.633196 
17.510000 	 0.585029 
17.515000 	 0.609112 
17.520000 	 0.536863 
17.525000 	 0.633196 
17.530000 	 0.585029 
17.535000 	 0.585029 
17.540000 	 0.657279 
17.545000 	 0.609112 
17.550000 	 0.609112 
17.555000 	 0.633196 
17.560000 	 0.609112 
17.565000 	 0.536863 
17.570000 	 0.609112 
17.575000 	 0.585029 
17.580000 	 0.609112 
17.585000 	 0.609112 
17.590000 	 0.560946 
17.595000 	 0.609112 
17.600000 	 0.585029 
17.605000 	 0.585029 
17.610000 	 0.633196 
17.615000 	 0.560946 
17.620000 	 0.536863 
17.625000 	 0.657279 
17.630000 	 0.585029 
17.635000 	 0.609112 
17.640000 	 0.609112 
17.645000 	 0.609112 
17.650000 	 0.585029 
17.655000 	 0.609112 
17.660000 	 0.657279 
17.665000 	 0.633196 
17.670000 	 0.633196 
17.675000 	 0.633196 
17.680000 	 0.609112 
17.685000 	 0.609112 
17.690000 	 0.633196 
17.695000 	 0.633196 
17.700000 	 0.560946 
17.705000 	 0.560946 
17.710000 	 0.536863 
17.715000 	 0.609112 
17.720000 	 0.560946 
17.725000 	 0.560946 
17.730000 	 0.609112 
17.735000 	 0.536863 
17.740000 	 0.609112 
17.745000 	 0.560946 
17.750000 	 0.585029 
17.755000 	 0.633196 
17.760000 	 0.633196 
17.765000 	 0.609112 
17.770000 	 0.585029 
17.775000 	 0.609112 
17.780000 	 0.609112 
17.785000 	 0.633196 
17.790000 	 0.585029 
17.795000 	 0.657279 
17.800000 	 0.633196 
17.805000 	 0.585029 
17.810000 	 0.633196 
17.815000 	 0.560946 
17.820000 	 0.609112 
17.825000 	 0.609112 
17.830000 	 0.609112 
17.835000 	 0.609112 
17.840000 	 0.633196 
17.845000 	 0.609112 
17.850000 	 0.536863 
17.855000 	 0.657279 
17.860000 	 0.585029 
17.865000 	 0.585029 
17.870000 	 0.609112 
17.875000 	 0.585029 
17.880000 	 0.560946 
17.885000 	 0.609112 
17.890000 	 0.609112 
17.895000 	 0.585029 
17.900000 	 0.536863 
17.905000 	 0.633196 
17.910000 	 0.585029 
17.915000 	 0.585029 
17.920000 	 0.585029 
17.925000 	 0.657279 
17.930000 	 0.633196 
17.935000 	 0.609112 
17.940000 	 0.633196 
17.945000 	 0.657279 
17.950000 	 0.585029 
17.955000 	 0.560946 
17.960000 	 0.585029 
17.965000 	 0.609112 
17.970000 	 0.609112 
17.975000 	 0.536863 
17.980000 	 0.633196 
17.985000 	 0.585029 
17.990000 	 0.609112 
17.995000 	 0.560946 
18.000000 	 0.536863 
18.005000 	 0.536863 
18.010000 	 0.560946 
18.015000 	 0.585029 
18.020000 	 0.560946 
18.025000 	 0.585029 
18.030000 	 0.657279 
18.035000 	 0.609112 
18.040000 	 0.633196 
18.045000 	 0.609112 
18.050000 	 0.633196 
18.055000 	 0.609112 
18.060000 	 0.633196 
18.065000 	 0.609112 
18.070000 	 0.657279 
18.075000 	 0.633196 
18.080000 	 0.705445 
18.085000 	 0.585029 
18.090000 	 0.609112 
18.095000 	 0.585029 
18.100000 	 0.585029 
18.105000 	 0.657279 
18.110000 	 0.585029 
18.115000 	 0.609112 
18.120000 	 0.560946 
18.125000 	 0.585029 
18.130000 	 0.560946 
18.135000 	 0.585029 
18.140000 	 0.609112 
18.145000 	 0.560946 
18.150000 	 0.633196 
18.155000 	 0.633196 
18.160000 	 0.585029 
18.165000 	 0.609112 
18.170000 	 0.585029 
18.175000 	 0.609112 
18.180000 	 0.585029 
18.185000 	 0.633196 
18.190000 	 0.633196 
18.195000 	 0.560946 
18.200000 	 0.609112 
18.205000 	 0.609112 
18.210000 	 0.585029 
18.215000 	 0.633196 
18.220000 	 0.609112 
18.225000 	 0.633196 
18.230000 	 0.633196 
18.235000 	 0.633196 
18.240000 	 0.657279 
18.245000 	 0.609112 
18.250000 	 0.609112 
18.255000 	 0.609112 
18.260000 	 0.585029 
18.265000 	 0.536863 
18.270000 	 0.560946 
18.275000 	 0.536863 
18.280000 	 0.512780 
18.285000 	 0.585029 
18.290000 	 0.609112 
18.295000 	 0.657279 
18.300000 	 0.633196 
18.305000 	 0.657279 
18.310000 	 0.585029 
18.315000 	 0.609112 
18.320000 	 0.585029 
18.325000 	 0.585029 
18.330000 	 0.657279 
18.335000 	 0.609112 
18.340000 	 0.633196 
18.345000 	 0.609112 
18.350000 	 0.657279 
18.355000 	 0.585029 
18.360000 	 0.609112 
18.365000 	 0.681362 
18.370000 	 0.609112 
18.375000 	 0.585029 
18.380000 	 0.633196 
18.385000 	 0.681362 
18.390000 	 0.585029 
18.395000 	 0.512780 
18.400000 	 0.536863 
18.405000 	 0.633196 
18.410000 	 0.585029 
18.415000 	 0.585029 
18.420000 	 0.536863 
18.425000 	 0.633196 
18.430000 	 0.609112 
18.435000 	 0.609112 
18.440000 	 0.633196 
18.445000 	 0.609112 
18.450000 	 0.633196 
18.455000 	 0.609112 
18.460000 	 0.657279 
18.465000 	 0.585029 
18.470000 	 0.657279 
18.475000 	 0.609112 
18.480000 	 0.657279 
18.485000 	 0.585029 
18.490000 	 0.633196 
18.495000 	 0.585029 
18.500000 	 0.609112 
18.505000 	 0.609112 
18.510000 	 0.560946 
18.515000 	 0.609112 
18.520000 	 0.609112 
18.525000 	 0.633196 
18.530000 	 0.560946 
18.535000 	 0.560946 
18.540000 	 0.585029 
18.545000 	 0.585029 
18.550000 	 0.585029 
18.555000 	 0.512780 
18.560000 	 0.609112 
18.565000 	 0.609112 
18.570000 	 0.609112 
18.575000 	 0.633196 
18.580000 	 0.536863 
18.585000 	 0.560946 
18.590000 	 0.609112 
18.595000 	 0.609112 
18.600000 	 0.609112 
18.605000 	 0.560946 
18.610000 	 0.681362 
18.615000 	 0.657279 
18.620000 	 0.609112 
18.625000 	 0.681362 
18.630000 	 0.681362 
18.635000 	 0.609112 
18.640000 	 0.657279 
18.645000 	 0.633196 
18.650000 	 0.585029 
18.655000 	 0.657279 
18.660000 	 0.609112 
18.665000 	 0.609112 
18.670000 	 0.585029 
18.675000 	 0.609112 
18.680000 	 0.609112 
18.685000 	 0.560946 
18.690000 	 0.585029 
18.695000 	 0.609112 
18.700000 	 0.609112 
18.705000 	 0.560946 
18.710000 	 0.585029 
18.715000 	 0.585029 
18.720000 	 0.536863 
18.725000 	 0.585029 
18.730000 	 0.681362 
18.735000 	 0.609112 
18.740000 	 0.585029 
18.745000 	 0.560946 
18.750000 	 0.585029 
18.755000 	 0.609112 
18.760000 	 0.609112 
18.765000 	 0.657279 
18.770000 	 0.585029 
18.775000 	 0.633196 
18.780000 	 0.657279 
18.785000 	 0.609112 
18.790000 	 0.633196 
18.795000 	 0.585029 
18.800000 	 0.585029 
18.805000 	 0.536863 
18.810000 	 0.536863 
18.815000 	 0.657279 
18.820000 	 0.633196 
18.825000 	 0.585029 
18.830000 	 0.609112 
18.835000 	 0.609112 
18.840000 	 0.560946 
18.845000 	 0.609112 
18.850000 	 0.585029 
18.855000 	 0.609112 
18.860000 	 0.585029 
18.865000 	 0.609112 
18.870000 	 0.633196 
18.875000 	 0.657279 
18.880000 	 0.633196 
18.885000 	 0.633196 
18.890000 	 0.633196 
18.895000 	 0.633196 
18.900000 	 0.585029 
18.905000 	 0.633196 
18.910000 	 0.609112 
18.915000 	 0.633196 
18.920000 	 0.585029 
18.925000 	 0.633196 
18.930000 	 0.657279 
18.935000 	 0.560946 
18.940000 	 0.609112 
18.945000 	 0.560946 
18.950000 	 0.609112 
18.955000 	 0.585029 
18.960000 	 0.585029 
18.965000 	 0.585029 
18.970000 	 0.560946 
18.975000 	 0.560946 
18.980000 	 0.633196 
18.985000 	 0.609112 
18.990000 	 0.560946 
18.995000 	 0.609112 
19.000000 	 0.657279 
19.005000 	 0.609112 
19.010000 	 0.585029 
19.015000 	 0.585029 
19.020000 	 0.585029 
19.025000 	 0.657279 
19.030000 	 0.633196 
19.035000 	 0.681362 
19.040000 	 0.657279 
19.045000 	 0.560946 
19.050000 	 0.633196 
19.055000 	 0.657279 
19.060000 	 0.633196 
19.065000 	 0.536863 
19.070000 	 0.609112 
19.075000 	 0.560946 
19.080000 	 0.585029 
19.085000 	 0.633196 
19.090000 	 0.560946 
19.095000 	 0.633196 
19.100000 	 0.536863 
19.105000 	 0.609112 
19.110000 	 0.560946 
19.115000 	 0.681362 
19.120000 	 0.585029 
19.125000 	 0.633196 
19.130000 	 0.585029 
19.135000 	 0.609112 
19.140000 	 0.633196 
19.145000 	 0.609112 
19.150000 	 0.633196 
19.155000 	 0.609112 
19.160000 	 0.633196 
19.165000 	 0.609112 
19.170000 	 0.681362 
19.175000 	 0.585029 
19.180000 	 0.633196 
19.185000 	 0.657279 
19.190000 	 0.705445 
19.195000 	 0.657279 
19.200000 	 0.633196 
19.205000 	 0.609112 
19.210000 	 0.585029 
19.215000 	 0.609112 
19.220000 	 0.536863 
19.225000 	 0.560946 
19.230000 	 0.609112 
19.235000 	 0.585029 
19.240000 	 0.633196 
19.245000 	 0.585029 
19.250000 	 0.536863 
19.255000 	 0.536863 
19.260000 	 0.657279 
19.265000 	 0.609112 
19.270000 	 0.560946 
19.275000 	 0.585029 
19.280000 	 0.633196 
19.285000 	 0.609112 
19.290000 	 0.657279 
19.295000 	 0.657279 
19.300000 	 0.585029 
19.305000 	 0.609112 
19.310000 	 0.609112 
19.315000 	 0.609112 
19.320000 	 0.609112 
19.325000 	 0.633196 
19.330000 	 0.609112 
19.335000 	 0.657279 
19.340000 	 0.609112 
19.345000 	 0.585029 
19.350000 	 0.609112 
19.355000 	 0.657279 
19.360000 	 0.609112 
19.365000 	 0.633196 
19.370000 	 0.536863 
19.375000 	 0.609112 
19.380000 	 0.657279 
19.385000 	 0.536863 
19.390000 	 0.585029 
19.395000 	 0.609112 
19.400000 	 0.585029 
19.405000 	 0.585029 
19.410000 	 0.609112 
19.415000 	 0.633196 
19.420000 	 0.585029 
19.425000 	 0.681362 
19.430000 	 0.633196 
19.435000 	 0.633196 
19.440000 	 0.681362 
19.445000 	 0.633196 
19.450000 	 0.585029 
19.455000 	 0.633196 
19.460000 	 0.585029 
19.465000 	 0.633196 
19.470000 	 0.633196 
19.475000 	 0.633196 
19.480000 	 0.609112 
19.485000 	 0.609112 
19.490000 	 0.585029 
19.495000 	 0.633196 
19.500000 	 0.585029 
19.505000 	 0.585029 
19.510000 	 0.560946 
19.515000 	 0.536863 
19.520000 	 0.609112 
19.525000 	 0.536863 
19.530000 	 0.633196 
19.535000 	 0.585029 
19.540000 	 0.560946 
19.545000 	 0.609112 
19.550000 	 0.585029 
19.555000 	 0.657279 
19.560000 	 0.609112 
19.565000 	 0.657279 
19.570000 	 0.609112 
19.575000 	 0.657279 
19.580000 	 0.681362 
19.585000 	 0.585029 
19.590000 	 0.633196 
19.595000 	 0.585029 
19.600000 	 0.657279 
19.605000 	 0.609112 
19.610000 	 0.560946 
19.615000 	 0.585029 
19.620000 	 0.585029 
19.625000 	 0.585029 
19.630000 	 0.657279 
19.635000 	 0.633196 
19.640000 	 0.657279 
19.645000 	 0.609112 
19.650000 	 0.657279 
19.655000 	 0.585029 
19.660000 	 0.585029 
19.665000 	 0.585029 
19.670000 	 0.657279 
19.675000 	 0.609112 
19.680000 	 0.585029 
19.685000 	 0.633196 
19.690000 	 0.633196 
19.695000 	 0.633196 
19.700000 	 0.657279 
19.705000 	 0.633196 
19.710000 	 0.609112 
19.715000 	 0.585029 
19.720000 	 0.657279 
19.725000 	 0.729528 
19.730000 	 0.681362 
19.735000 	 0.609112 
19.740000 	 0.681362 
19.745000 	 0.633196 
19.750000 	 0.657279 
19.755000 	 0.633196 
19.760000 	 0.609112 
19.765000 	 0.633196 
19.770000 	 0.609112 
19.775000 	 0.585029 
19.780000 	 0.633196 
19.785000 	 0.585029 
19.790000 	 0.560946 
19.795000 	 0.609112 
19.800000 	 0.609112 
19.805000 	 0.560946 
19.810000 	 0.609112 
19.815000 	 0.585029 
19.820000 	 0.633196 
19.825000 	 0.657279 
19.830000 	 0.657279 
19.835000 	 0.657279 
19.840000 	 0.633196 
19.845000 	 0.609112 
19.850000 	 0.609112 
19.855000 	 0.609112 
19.860000 	 0.633196 
19.865000 	 0.585029 
19.870000 	 0.681362 
19.875000 	 0.609112 
19.880000 	 0.657279 
19.885000 	 0.609112 
19.890000 	 0.633196 
19.895000 	 0.681362 
19.900000 	 0.585029 
19.905000 	 0.633196 
19.910000 	 0.585029 
19.915000 	 0.560946 
19.920000 	 0.560946 
19.925000 	 0.560946 
19.930000 	 0.609112 
19.935000 	 0.585029 
19.940000 	 0.585029 
19.945000 	 0.585029 
19.950000 	 0.585029 
19.955000 	 0.657279 
19.960000 	 0.609112 
19.965000 	 0.609112 
19.970000 	 0.633196 
19.975000 	 0.609112 
19.980000 	 0.609112 
19.985000 	 0.681362 
19.990000 	 0.609112 
19.995000 	 0.585029 
